acc_x, acc_y, angular_z, stamp, 
0.24495854953591095,1.170242340231209,1.1135488056689582,3369418000000,
0.2493792780778245,1.1773146477063803,1.1139861121860608,3369422000000,
0.2440536426322153,1.1551483943602388,1.1152032588841094,3369427000000,
0.2937653220553511,1.1887076091604865,1.1160992890988488,3369432000000,
0.253829567010938,1.1623004625516105,1.1167702250780032,3369437000000,
0.24999954737522886,1.130692667463407,1.1178592734624249,3369442000000,
0.24969515086845978,1.1590138350137718,1.118561637457949,3369447000000,
0.24051834405289613,1.1859617983467685,1.119113550137308,3369452000000,
0.2654878193285166,1.170165391732258,1.1197089389251913,3369457000000,
0.22274077359872627,1.1642322179441034,1.1209859409032985,3369462000000,
0.28548346175929235,1.15904210013264,1.1218373225926643,3369467000000,
0.2602516090271607,1.1800766902069615,1.1228347937799315,3369472000000,
0.23302916494955903,1.1861412306369996,1.1237741609322511,3369477000000,
0.22695764014924003,1.1523972008326673,1.1242296040621862,3369482000000,
0.22368890221369112,1.1779986832592535,1.1249879702741175,3369487000000,
0.24118285819636587,1.224782767453197,1.12554101400742,3369492000000,
0.25636980121263286,1.18572911777768,1.1259342263020575,3369497000000,
0.23961007933609338,1.1615993114048389,1.1264020353178024,3369502000000,
0.2386974153956257,1.1519353625125455,1.1270517793756423,3369507000000,
0.23560436317885983,1.204949958176946,1.127391345491601,3369512000000,
0.2550356106618526,1.2178136314637724,1.1276715710853644,3369517000000,
0.2572648824822898,1.1465248321935337,1.1275662736586805,3369522000000,
0.2584249783156052,1.1923830751051374,1.1277800955844568,3369527000000,
0.25423041160069254,1.1958208628665452,1.1276938872579458,3369532000000,
0.25448208920258725,1.1465213471128728,1.1278946188259178,3369537000000,
0.24700410569725062,1.184161339440619,1.128484337598462,3369542000000,
0.24476484781173466,1.1964791974660625,1.128571638116208,3369547000000,
0.22342437443644036,1.1581171063940894,1.1285242092292278,3369552000000,
0.21966463896608351,1.1594382978270859,1.1287470632614072,3369558000000,
0.25326313911737913,1.1769501341764623,1.12931574524538,3369563000000,
0.21874184920200737,1.1668938603650831,1.129491840155732,3369568000000,
0.23782941969703378,1.1653427052507022,1.129748501232364,3369573000000,
0.23644670959206332,1.1581315798377199,1.129412076246277,3369578000000,
0.21804839807978182,1.1355465670092704,1.129513321182332,3369583000000,
0.226108548064544,1.1762519957096507,1.1295423308092007,3369588000000,
0.23251077345575036,1.1665686790226732,1.1295457350466864,3369593000000,
0.2511779770844449,1.1401403732840003,1.1290148752040834,3369598000000,
0.2424108575308075,1.1573560815211863,1.1288852774851863,3369603000000,
0.24624383027561023,1.1887781679938605,1.128020454767993,3369608000000,
0.20892672825186945,1.1717145002992488,1.1277950750219574,3369613000000,
0.24425289690073154,1.1925849698711597,1.127220906516757,3369618000000,
0.20994777645090834,1.1700336858760811,1.126603217041375,3369623000000,
-6.602005895009871,1.2036739956300126,1.1256962731485314,3369628000000,
0.17805246104302855,1.1445387246754186,1.1237195230169268,3369634000000,
0.3003782292064696,1.160313314904905,1.123095867625475,3369639000000,
0.24948006949874493,1.1083708787229403,1.122395538068264,3369644000000,
0.22133951190733295,1.113097680721897,1.121944996433819,3369649000000,
0.22695595330376336,1.1091005033401522,1.1214938922197224,3369654000000,
0.22090769862158327,1.1082080938204297,1.1206919862073765,3369659000000,
-6.8074285529960745,1.1598720987872047,1.1193868179911368,3369664000000,
0.37614746601871424,1.0980041807767142,1.118388877415766,3369669000000,
0.2647998666456296,1.1042770214565576,1.1182104417709995,3369674000000,
0.21517320253266103,1.066421826342819,1.1171888354792858,3369679000000,
0.2011007092940264,1.0610587394271724,1.1168771239167612,3369684000000,
0.18439040840861384,1.0886325389495115,1.1156241800983209,3369689000000,
0.19219705985666605,1.1244699772395952,1.1148827892338387,3369694000000,
-6.783886269168102,1.1090245133644991,1.1128903057524575,3369699000000,
0.31869486354189736,1.0805128028341098,1.1116980604697362,3369704000000,
0.25666633861903515,1.0653346180584375,1.1097111097194747,3369711000000,
0.2274155051206663,1.0490308571260234,1.108633575834006,3369716000000,
0.1994040964419985,1.0783752809079516,1.107507217709602,3369721000000,
0.19731502197429537,1.046456874175385,1.1061166445848167,3369726000000,
-6.829690090136221,1.0522001967297525,1.1042674253459037,3369731000000,
0.3278079252535526,1.0188351174355519,1.102937318117852,3369736000000,
0.2657726519948293,1.0278048412993022,1.1011917930125814,3369741000000,
0.19011015836440245,1.0000219943080084,1.0994823100930962,3369746000000,
0.19754112479299873,1.0355011638139109,1.0981131754032016,3369751000000,
0.17265028359029855,1.0056441114419172,1.0975848131204968,3369756000000,
0.20004472423276412,1.0315886242087138,1.0957501709165614,3369761000000,
-7.60574151733741,1.0791676290609415,1.0956517081771249,3369766000000,
1.259236238177416,0.8077107209605799,1.0944411594462575,3369771000000,
0.11438188575145102,1.0738197309033775,1.0909626853389813,3369776000000,
-0.48227810806968024,1.0996790373757692,1.0925850632697067,3369781000000,
0.8176617952655079,0.752491080677766,1.092858181740461,3369786000000,
-0.5479178193530496,1.2482658169309362,1.0905026832917617,3369791000000,
0.11433382639263714,1.0558011851526152,1.0926076058844905,3369796000000,
-6.856767896451356,1.0047695613486156,1.0926755972309738,3369801000000,
0.264759143500409,1.0069106458260606,1.094419589570832,3369806000000,
0.3350517399398873,0.9880160150975924,1.094082058192936,3369811000000,
0.3102869479361869,0.9115741723103308,1.0965886476013162,3369816000000,
0.20475142496082624,0.9465898406657772,1.098187644022696,3369821000000,
0.1564416244181913,0.972732587869905,1.1000122881706917,3369826000000,
-4.977428815183564,0.968528218044953,1.1010696187057676,3369831000000,
-2.2054882141916683,0.9391920314939148,1.1015672370515643,3369836000000,
0.34743755019178085,0.9280698363715527,1.1028585212057211,3369841000000,
0.16638579455262958,0.9374390116382031,1.1041670393824818,3369846000000,
0.159240228536354,0.9638670357032194,1.1060329503854707,3369851000000,
0.1350586697380046,0.9594817810067716,1.1069380191898457,3369856000000,
0.142283360301381,0.9285800780638831,1.107926667975919,3369861000000,
-6.368918322324345,0.9668936497948001,1.107742085481291,3369866000000,
-1.3721367052472004,0.9350488030563867,1.1075866947448907,3369871000000,
0.22856995727085766,0.8928450145218338,1.1078041791854123,3369876000000,
0.12412327134241213,0.9342268998928874,1.10812720323647,3369881000000,
0.10927080162354873,0.9083961396748647,1.1084907553978127,3369886000000,
0.1378268819020813,0.9108198835579682,1.1081771753668375,3369891000000,
0.855974262872144,0.8949447054078967,1.1071773785053838,3369896000000,
-7.685950648383041,0.921543043950196,1.1034863018489385,3369901000000,
0.2783596489783067,0.8201028324206043,1.102880881417252,3369906000000,
0.1883452944156338,0.7676183397157463,1.102052825029728,3369911000000,
1.0997958612613585,0.8281599090154284,1.0957009227375645,3369916000000,
-0.918736774632216,0.9839932697381647,1.093137387770251,3369921000000,
0.19514822102751003,0.749421724558055,1.0923139372691437,3369926000000,
1.1091719811316603,0.836419930132663,1.0854484169667984,3369931000000,
-8.085047696413936,0.9774445130485828,1.0809593099477226,3369936000000,
1.496875399897033,0.7237903128680149,1.0791936431341493,3369941000000,
0.1525104689817092,0.8711368545562681,1.0700190138185308,3369946000000,
-0.9658624895623962,0.7958995797344406,1.0694174518564574,3369951000000,
1.0342945647628408,0.7833664373445224,1.064564353784288,3369956000000,
0.03881994099191588,0.8219432745428447,1.0586094108229573,3369961000000,
0.13291362993745068,0.7898215597027132,1.0538423911141503,3369966000000,
-6.866172646179304,0.7762251315878764,1.050982175875137,3369971000000,
0.19247635110285063,0.7896747198616547,1.0445114503955661,3369976000000,
0.11032819940686939,0.7787352958963993,1.039083843367317,3369981000000,
0.14289085355501166,0.7641020570629813,1.0347860486994296,3369986000000,
0.11371620286757017,0.7761824302083903,1.0311948324745426,3369991000000,
0.10248741432284528,0.7803834238179371,1.028161366904206,3369996000000,
-5.626511485452733,0.8230951749921804,1.0254572891868485,3370001000000,
-1.0777551771559304,0.4957128358896203,1.0216530741916512,3370006000000,
0.04538102534538051,0.8723194633084533,1.0184702391910194,3370011000000,
0.1758998814701462,0.7809913016966837,1.0161625753757233,3370016000000,
0.24048687462759005,0.5750003163998928,1.0137136311577675,3370021000000,
0.16677047945482373,0.6559654258504879,1.0121496643339185,3370026000000,
0.1173286785292719,0.6937520175137774,1.009746987922838,3370031000000,
-6.72084095553293,0.7013856795945239,1.007959987324493,3370036000000,
0.016343091556906598,0.6815052620107227,1.0053045208711153,3370041000000,
0.2016144403680754,0.6422929110799062,1.0037155063411312,3370046000000,
0.13919127010893026,0.6748227402414354,1.0019664976462597,3370051000000,
0.07212372590652812,0.6744191230623108,1.0006891208064952,3370056000000,
0.10663816165268587,0.6559056587693152,1.0000220887049622,3370061000000,
0.07343322910163522,0.6427307147762058,0.9988440014595255,3370066000000,
-6.97385024614451,0.6723824209449741,0.9973203836688448,3370071000000,
0.19912770282702094,0.628328676317533,0.995453955912424,3370076000000,
0.12819322581553233,0.6604042819531731,0.9947503599010145,3370081000000,
0.10290139401242963,0.5967199938871107,0.9941432131668988,3370086000000,
0.039639068524529204,0.6656427439107054,0.9933421933949736,3370091000000,
0.08598612864501727,0.6309909894928021,0.9931069887037507,3370096000000,
0.05769979887386351,0.6139318410039177,0.992802115035264,3370101000000,
-8.585952411549854,0.4300973252499407,0.9919916809282572,3370106000000,
0.1657802053743688,0.6266213288942207,0.9917532648121873,3370111000000,
-0.3593123122740545,0.5170069451470838,0.9928500445701801,3370116000000,
0.5260193286071579,0.6414086215874508,0.9939600707623439,3370121000000,
0.03768128794440184,0.5890346675575007,0.994893802165066,3370126000000,
-0.4338325303219164,0.5327213051619764,0.9959280190361701,3370131000000,
0.47690322145056435,0.6774637469020499,0.9980043802528502,3370136000000,
-6.934332291447873,0.5938346595433668,0.9977374074300641,3370141000000,
-0.37943156843127507,0.5187101982152637,0.9990339583472443,3370146000000,
0.5420130880375535,0.676630294055766,1.0009622189214302,3370151000000,
0.07016910701853545,0.5478453029474979,1.0018422352182377,3370156000000,
-0.4419530115131514,0.5097166582585907,1.0050442273470304,3370162000000,
0.49698381872082625,0.6640655365449446,1.006435821834516,3370167000000,
-4.721608401949989,0.5507718297528844,1.0076031734404292,3370174000000,
0.7102638507511712,0.5378266273265069,1.009445580080343,3370179000000,
0.17032593703308643,0.589281298258844,1.0092139304646233,3370184000000,
-0.4855849013288523,0.6463773702468008,1.0112342456070402,3370189000000,
0.4836080012689019,0.511223897448898,1.010830428363938,3370194000000,
0.008948082498517793,0.5453990500819955,1.010022250461915,3370199000000,
-0.07235417446580665,0.5026587509704642,1.0085559905757187,3370204000000,
-6.934415861745864,0.5938885961598181,1.0065943229948788,3370209000000,
0.043417697203896974,0.5548048187223593,1.0044729980425668,3370214000000,
0.03291854322844381,0.48776335622038675,1.0031402753319068,3370219000000,
0.004358412254902626,0.4772660433317781,1.0020322239535182,3370224000000,
-0.0143096844178839,0.5092674104310623,1.0007162074300402,3370229000000,
-0.022379622322200646,0.5093539036819992,0.999645953053385,3370234000000,
-5.7191081195505555,0.5307078681353441,0.9987920552471646,3370239000000,
-1.3444076962356748,0.4430823436795242,0.996788067540652,3370244000000,
0.10604643706696484,0.485588786797117,0.996016421007268,3370249000000,
-0.03637574312482058,0.47844539907441463,0.9945590651842843,3370254000000,
-0.03672378951455528,0.46178333077178035,0.994342910860125,3370259000000,
-0.07279668543088565,0.4793216822871583,0.9936816219485652,3370264000000,
-0.06900605035992524,0.47514800512172334,0.9928933065631976,3370269000000,
-6.9331125257119295,0.47836552853870884,0.9925796474710048,3370274000000,
-0.20889723019597703,0.43272057808553716,0.9910515799139105,3370279000000,
-0.3393827904209173,0.46772946771751495,0.9911413515598713,3370284000000,
0.4105106019591236,0.5260471159611779,0.9916743646823011,3370289000000,
-0.11812129807984509,0.3206662911523881,0.9919056130869778,3370294000000,
-0.12631306534620051,0.45958841532666944,0.9913378572993445,3370299000000,
-0.5647572769859669,0.4346130906378216,0.9923093153701161,3370304000000,
-6.629540686274668,0.49495349703401315,0.9932420334663791,3370309000000,
-0.01609391596835774,0.3650636043580312,0.9928776237621361,3370314000000,
-0.44473353527084947,0.38878544338388205,0.9927671263350736,3370319000000,
-0.1891141008174352,0.4364474449102627,0.9938918395736149,3370324000000,
0.17674523544530757,0.4222352048874216,0.9953940553456382,3370329000000,
-0.14189382241825702,0.36531648700038505,0.99473531063084,3370334000000,
-0.5576200014721094,0.4161343809858584,0.9969959631401926,3370339000000,
-6.696151725451321,0.38919307334545583,0.9971423553834938,3370344000000,
-0.02034225847046562,0.3605252092568747,0.9970087545286127,3370349000000,
-0.5065061779653923,0.3524316502912808,0.9981899711538743,3370354000000,
0.39426004607031223,0.4628646042546637,0.9997262679480169,3370359000000,
-0.17320984800868702,0.3363682909754931,0.9989515465351148,3370364000000,
-0.627707125341881,0.3544658895674202,1.000148740595496,3370369000000,
0.18328354744282088,0.4162782047305039,1.0020947797531532,3370374000000,
-6.974199204763243,0.3494290459839935,1.0006839880457086,3370379000000,
-0.5629276989701124,0.33110666352876006,1.0007240594835383,3370384000000,
-0.08827606823667387,0.36941307573869697,1.0023128529701506,3370389000000,
0.34601531109859607,0.43084866302462704,1.002913041055351,3370394000000,
-0.2080653321607247,0.31818575354792683,1.0022187042599577,3370399000000,
-0.6107182017644104,0.3264233327691249,1.003308320038259,3370404000000,
-5.3235686979576595,0.4603855868342703,1.0042042683011403,3370409000000,
-1.4872511811402813,0.23989092979150392,1.0029135574637948,3370414000000,
-0.6031767203940768,0.2734962987004034,1.0029166706620403,3370419000000,
0.20353486630255824,0.35065799586195057,1.0049032745517765,3370424000000,
0.046084188428440254,0.3095305186203408,1.0042191203428805,3370429000000,
-0.278180350124558,0.3095390102212681,1.002538472619344,3370434000000,
-0.6501544453860283,0.29855045665157026,1.004724719081927,3370439000000,
-6.544142982175912,0.32311974963211776,1.0055294117430595,3370444000000,
-0.2547477048833522,0.31361031458234645,1.0042714864191549,3370449000000,
-0.5832096793428941,0.2549428413970092,1.0033119663225731,3370454000000,
-0.2704773499569016,0.263591905888705,1.0048544540671658,3370459000000,
0.39635544786883586,0.31673167614126,1.0046217255852496,3370464000000,
-0.30970276484380566,0.2634773036095528,1.0032494057855126,3370469000000,
-0.7406021449540572,0.25057947560980537,1.0035505711380057,3370474000000,
-6.495962063778972,0.39810511042318303,1.0034467360670682,3370479000000,
-0.28588215702544,0.17392680740954078,1.0023633255608375,3370484000000,
-0.2254293239956303,0.24037358993723332,1.0006998885962481,3370489000000,
-0.6969522472616626,0.22761837435538862,1.0013912450823543,3370494000000,
0.3150228028739945,0.2819951542242656,1.0017089688587917,3370499000000,
-0.32269063683172966,0.18479828746666951,1.0007797383506583,3370504000000,
-0.2637595059486227,0.251576271321072,0.9998820306290082,3370509000000,
-7.333775520099989,0.23689000754841313,0.9979578392812033,3370514000000,
-0.10735922991627295,0.1855511610674249,0.9985934934559976,3370519000000,
-0.1854926202196125,0.2075669395611078,0.9973469146165209,3370524000000,
-0.21663604220155538,0.23883306643976268,0.9969384131561178,3370529000000,
-0.24134724634563945,0.21064506243523373,0.9959357700965146,3370534000000,
-0.22724980840738138,0.2208182271589023,0.9946567585279388,3370539000000,
-3.7025596933007257,0.21974640297515133,0.9928308976880824,3370545000000,
-0.7589732501350609,0.10692415927287292,0.9799861530943902,3370550000000,
-0.5987118645422042,0.09909038913134664,0.9662333726850995,3370555000000,
-0.2503497316165158,0.38364696997786096,0.954096925422567,3370560000000,
-0.17542323773301777,0.16551332156044926,0.9430782399566949,3370565000000,
-0.2017549124352685,0.11758593347164745,0.9334831241969169,3370570000000,
-0.22547369718327717,0.09832834651000094,0.9250355847475089,3370575000000,
-3.765561688736529,0.21027113614155962,0.9110582645686428,3370580000000,
-0.7821157099329874,0.28979068784579076,0.8880709224503325,3370585000000,
-0.39646594246138034,0.15546700709219025,0.8662505193434111,3370590000000,
-0.27626557706685606,0.08079585588678599,0.8456038241762572,3370595000000,
-0.21868355488543248,0.18736716181816507,0.8265956745030161,3370600000000,
-0.244880017665325,0.09421444630227532,0.8083009869262596,3370605000000,
-0.22453920554511622,0.085049944459275,0.7922238196700023,3370610000000,
-3.9980133950327277,0.3307189428836519,0.7674879816571298,3370615000000,
-0.5447315103978072,0.3388421437483794,0.7328712369595664,3370620000000,
-0.27814537259355854,-0.054738805965618545,0.7110135962063392,3370625000000,
-0.23748035203859552,0.04164107141275074,0.6853282323581943,3370630000000,
-0.21747737003995216,0.17192486030838794,0.6613841607806474,3370635000000,
-0.21286103532733205,0.0647112960119145,0.6398327294117182,3370640000000,
-0.2206488827147156,0.0696574822545568,0.6198318281681874,3370645000000,
-4.0339645905639125,0.3494435756875096,0.5887102182851344,3370650000000,
-0.4625639774779024,0.20078666267991482,0.5563752143603912,3370655000000,
-0.27548354215776216,-0.09399934224828022,0.5260277461376285,3370660000000,
-0.27060720316831166,0.12136407181841564,0.49771302272186413,3370665000000,
-0.2421462021353856,0.0444427901911649,0.4712107365967212,3370670000000,
-0.25040373130408927,0.03351248113066582,0.4473489810521235,3370675000000,
-0.2547353575277491,0.0638364899665914,0.4252951603608349,3370680000000,
-0.27835865782033875,0.18651691220539382,0.40484650861984073,3370685000000,
-0.2841352751096284,0.06724995889159933,0.3828191981147342,3370690000000,
-0.2520898243356854,0.13584115154573895,0.369259039448189,3370695000000,
-0.28708950760945656,0.04243872030253675,0.35374636797250636,3370700000000,
-0.30607224926466575,0.11320924971431962,0.3389598504197949,3370705000000,
-0.3308192405134841,0.15182825218980736,0.32537316480284606,3370710000000,
-0.31853251095045054,0.10853258985249187,0.31339804574339136,3370715000000,
-0.3075445723978045,0.03319460088684223,0.30226141732433726,3370720000000,
-0.35160204320142374,0.07682310206144993,0.2913066781604418,3370725000000,
-0.35327448744820006,0.1482677458453896,0.2815812908104549,3370730000000,
-0.32942729122810965,0.06015063813733714,0.27261220261551183,3370735000000,
-0.3622896931848747,0.13731789756694332,0.2641704513942517,3370740000000,
-0.3750375086889653,0.06639252558762412,0.25652202698168236,3370745000000,
-0.12489359548994032,0.12608271914226218,0.24897921443448098,3370750000000,
-0.2298322993993846,0.11523560175928278,0.24238375381139268,3370755000000,
-0.41341572632841583,0.12140736852133316,0.23507987876278338,3370760000000,
-0.2769694545197789,0.1246875421682895,0.22766747363860915,3370765000000,
-0.29912163803930497,0.13565127561159832,0.2210780359886209,3370770000000,
-0.3459362507189795,0.14669656711307086,0.21351757656949094,3370775000000,
-0.39770856570877844,0.12948410665029012,0.20656738236144345,3370780000000,
-0.42673627084231547,0.12109202731809746,0.2007634302052686,3370785000000,
-0.4846604481616469,0.11026319720143266,0.19505956079020265,3370790000000,
-0.5082264752572992,0.13822944372856705,0.19174961215475111,3370795000000,
-0.40301191945031406,0.1282048562336232,0.1885244385781224,3370800000000,
-0.4073071882132523,0.11835783863607838,0.18650560835950938,3370805000000,
-0.42081072111853857,0.11052445372908355,0.1854845420353251,3370810000000,
-0.4306322996684155,0.09946531082252362,0.18590130373675673,3370815000000,
-0.4468837868519179,0.07063630348751535,0.18600512227024713,3370820000000,
-0.45583818030044004,0.10993914397841449,0.18813131917411322,3370825000000,
-0.43299604009348935,0.11814090917512099,0.19025668989563008,3370830000000,
-0.44652577159306434,0.09525414933482317,0.1924412502334957,3370836000000,
-0.4205512861711,0.09876742118534611,0.19636186081335602,3370841000000,
-0.4483581861931449,0.09297030065585424,0.19911864393462,3370846000000,
-0.29133593588105766,0.10791246473942273,0.20253091563084824,3370851000000,
-0.3957444652711142,0.1299030414313944,0.20430943792139541,3370856000000,
-0.44796059841700897,0.07064779184145964,0.20596409349351796,3370861000000,
-0.4726059219478455,0.11106753169173611,0.20736845118127106,3370866000000,
-0.4876944248455687,0.11369650534338753,0.20789297945723176,3370871000000,
-0.4620758088936726,0.1279215871050104,0.2080820026026818,3370876000000,
-0.4764221187932168,0.1075141475169547,0.2075225192386065,3370881000000,
-0.46473645400281527,0.09673800863609018,0.20646998754340476,3370886000000,
-0.47237251639574296,0.10382370952991249,0.20468289564093803,3370891000000,
-0.4899307657610496,0.09150476920725817,0.2034249030382843,3370896000000,
-0.496024225612037,0.09512376789513403,0.20144473034560087,3370901000000,
-0.4973155851949496,0.08604308165504981,0.19968758554936455,3370906000000,
-0.49801532632351814,0.10196557814575032,0.1981256349295083,3370911000000,
-0.47098044241089726,0.11950565517038221,0.1969197147937086,3370916000000,
-0.2917153534919585,0.07504610952263031,0.1958723566403989,3370921000000,
-0.499870475918261,0.10414240967101203,0.19491313714396397,3370926000000,
-0.4969154743213244,0.1243558531264659,0.19422072689465789,3370931000000,
-0.5212789656156971,0.11017617176562605,0.19462997743586644,3370936000000,
-0.5099991128248323,0.09243874300987365,0.19436011543410467,3370941000000,
-0.48542659642585795,0.09712639680563279,0.19534269895812645,3370946000000,
-0.4729879429983005,0.09985746055702042,0.1958154684440115,3370951000000,
-0.5348839613150324,0.08699985298879188,0.1967604393948201,3370956000000,
-0.512630184486029,0.059943090979912676,0.19753029559913243,3370961000000,
-0.5021860856864675,0.07515226010907573,0.19880253056330685,3370966000000,
-0.47609066708881437,0.08940017672305384,0.19989153687006037,3370971000000,
-0.5062924669616334,0.1064297826357937,0.2003895203448922,3370977000000,
-0.4916725765880932,0.09010575873180263,0.2011384639784784,3370982000000,
-0.5249152241874266,0.07647084733255921,0.20203988210911464,3370987000000,
-0.5251674856189097,0.11746981652595212,0.20189730413228607,3370992000000,
-0.510002591204084,0.08073906683458716,0.20183245816923617,3370997000000,
-0.5197287260290292,0.07770164121625035,0.20222396185195293,3371002000000,
-0.5227210012016906,0.09173156023439376,0.20160182685149908,3371007000000,
-0.5312426660877007,0.09063789747608259,0.20099042640257117,3371012000000,
-0.5320151906741167,0.08480230217402984,0.20040107631506376,3371017000000,
-0.3163716022527113,0.06372833571336416,0.20035508390452608,3371022000000,
-0.4638091468207858,0.09169723484339422,0.19929466066182613,3371027000000,
-0.5438162598273475,0.08824622324948073,0.1989139522220452,3371032000000,
-0.5415013057069041,0.07641136944058277,0.19837333892372191,3371037000000,
-0.5376897335150754,0.07263190674792545,0.19801663570845474,3371044000000,
-0.5318461777757464,0.027376830960795257,0.197536010686819,3371049000000,
-0.5511647356944857,0.08210662021696712,0.1974711145230674,3371054000000,
-0.5512123649079042,0.09216503994953064,0.19717743856932618,3371059000000,
-0.5357361844146974,0.0791294018654962,0.1972856043982387,3371064000000,
-0.5512775601335627,0.03655835446475311,0.197349463948552,3371069000000,
-0.5396192589477486,0.08064263362761398,0.19773730908643533,3371074000000,
-0.527480045591174,0.05673140709202584,0.19800583953915726,3371079000000,
-0.5865035951227339,0.07904368328771405,0.1983009882108804,3371084000000,
-0.5621071631344629,0.08442349429103368,0.1988117845354751,3371089000000,
-0.5416757049388998,0.06916335514564226,0.19918507847077274,3371094000000,
-0.5423094396206077,0.04841085599579832,0.19966992310538847,3371099000000,
-0.5467817950374292,0.0589162055652003,0.19999890450901647,3371104000000,
-0.5483253793879348,0.08574065415076423,0.2001809461072762,3371109000000,
-0.5542199927136122,0.0935641959311404,0.20031301217335815,3371114000000,
-0.5594518162363924,0.06314190657780003,0.2002201777747881,3371119000000,
-0.3808244261188759,0.05648268550443245,0.19996619329108753,3371124000000,
-0.5391661405584878,0.05797652444841816,0.19983982058204855,3371129000000,
-0.5598755701007421,0.06609436827873594,0.20013053211608517,3371134000000,
-0.5492059660719191,0.0698416503858573,0.19975262935702082,3371139000000,
-0.5468230625040016,0.06276021532063443,0.19919252448522978,3371144000000,
-0.5507409052559653,0.04994098603498133,0.19931441784138423,3371149000000,
-0.5664641061410349,0.05666593826717876,0.19871326113851415,3371154000000,
-0.5708422288629982,0.06120857103402489,0.1988171852731317,3371159000000,
-0.5820593691044836,0.024521126416148852,0.19873075701495188,3371164000000,
-0.5912947571897247,0.06141206456095122,0.19868474005149228,3371169000000,
-0.5790872961297636,0.05811272544371329,0.19842508641273812,3371174000000,
-0.5609056965702416,0.031820027190984514,0.19872282324077206,3371179000000,
-0.5263930305236625,0.03478874970277344,0.19864103598385865,3371184000000,
-0.5684930146204323,0.02106753657285478,0.1986031830944362,3371189000000,
-0.5830632850857644,0.062206883105404176,0.1988359536322728,3371194000000,
-0.5319071005230038,0.061994986331418096,0.19852658509308455,3371199000000,
-0.5778124137792721,0.054849280492953977,0.19864749842513887,3371204000000,
-0.5614727211594749,0.055814598001944854,0.1989825374342563,3371209000000,
-0.5890804947037137,0.051113234095324124,0.19927126075259952,3371214000000,
-0.5548083436364818,0.061136037805136115,0.19907281369486515,3371219000000,
-0.5719938759938308,0.04011987938120263,0.19918540171983215,3371224000000,
-0.37928394367028073,0.005295320275705506,0.19950347737076757,3371229000000,
-0.5828696802214401,0.03431241755813946,0.19913237436035552,3371234000000,
-0.5233467009402363,0.011608099674810975,0.1991670421277956,3371239000000,
-0.6086268295146325,0.0218027438498782,0.19931884475423609,3371244000000,
-0.5506202360989196,0.01715533240513662,0.19947749420649297,3371249000000,
-0.579456472060934,0.06153435705643853,0.19963347840792656,3371255000000,
-0.5347473913098494,0.04485908114683584,0.1992037079795841,3371260000000,
-0.5837187886986109,0.028617600767483577,0.19886492951869872,3371265000000,
-0.5754438889314436,0.034059701367596895,0.19928952949540157,3371270000000,
-0.5810336231561988,0.047084324369812074,0.19897060325973834,3371275000000,
-0.5833288785628019,0.041326833926982276,0.19900124952343082,3371280000000,
-0.5592604427682866,0.04022217391092815,0.19894579109773478,3371285000000,
-0.5717766069259487,0.0443728701337862,0.19893977091261725,3371290000000,
-0.5863531592054714,0.021737273134679408,0.1990168611049891,3371295000000,
-0.5852867622578518,0.027715681166866454,0.19890820372795417,3371300000000,
-0.5875372522096206,0.02429410466804601,0.1990380773664685,3371305000000,
-0.5911997928103186,0.02194112459788833,0.198695904816994,3371310000000,
-0.6081792634969113,0.008930297239758571,0.19907461286145656,3371315000000,
-0.5572758408367323,0.01417951245443339,0.1992117621353903,3371320000000,
-0.548323032348519,0.0394983539838721,0.19889051854339548,3371325000000,
-0.3585678464025744,0.03151093152210367,0.19921435937213247,3371330000000,
-0.5738422779904552,0.00048825863004186773,0.19914054741709947,3371335000000,
-0.5861479329578195,0.04581146677254184,0.19926124539555948,3371340000000,
-0.6043682844435054,0.04376416371854147,0.199299251635472,3371345000000,
-0.576445706844236,0.03760784870142812,0.19906965477122657,3371350000000,
-0.5496430990932906,0.012914036964972574,0.19946316121953578,3371355000000,
-0.6112959081695933,0.041134433320201835,0.19942168848320593,3371360000000,
-0.5896955317383398,0.01651642617561251,0.1995704474887256,3371365000000,
-0.5615866299660887,0.01505934027267338,0.19914005519221056,3371370000000,
-0.5739545700115088,0.020682439775846218,0.19933944832629552,3371375000000,
-0.5943773048020312,0.03160210829921182,0.19899920786455624,3371380000000,
-0.5841319592609207,0.026754733747888657,0.19869335563137466,3371387000000,
-0.5694795824398119,0.02950859259436017,0.19936198669705826,3371392000000,
-0.5679657220169007,-0.00317545069202025,0.19937141794077928,3371397000000,
-0.5945783895996163,-0.00420139880075375,0.19913808279306341,3371402000000,
-0.5948703678379789,0.026859030503830178,0.1989568093739662,3371407000000,
-0.5836939822709708,0.012043991902313794,0.19922449945061246,3371412000000,
-0.5772061927374597,0.009287962821630524,0.19924030050378286,3371417000000,
-0.5692290897591957,0.015081199659817173,0.19887259363096474,3371422000000,
-0.5678456731059295,0.005048073959604601,0.19931365161767936,3371427000000,
-0.3666614327406123,0.0007284093645855069,0.19891307820387893,3371432000000,
-0.5686012821427788,-0.0020614763417116516,0.19924106558839383,3371437000000,
-0.5856461789128135,0.03958319067777813,0.19910141662470496,3371442000000,
-0.5659325874396506,0.01568724888811277,0.19944333920507198,3371447000000,
-0.5893692528163703,0.014510514041410535,0.19939225059660926,3371452000000,
-0.6051603732940823,0.025695894541302347,0.1989045258420513,3371457000000,
-0.5545514973142351,0.0032481174701043357,0.1993491197942161,3371462000000,
-0.566015921503857,0.014530986522648491,0.19912437736623065,3371467000000,
-0.5567533315216161,0.022107727852539328,0.19938883902416654,3371472000000,
-0.5544051730871781,0.05286132066841033,0.19942962957836705,3371477000000,
-0.5865162675034828,0.03194326197170722,0.19923883127710795,3371482000000,
-0.5878419930721966,0.021892662223904888,0.19963254312366005,3371487000000,
-0.5688521795913036,0.004247584468201539,0.19942178061224056,3371492000000,
-0.5644537244424904,0.0009037393371452776,0.19905844715446874,3371497000000,
-0.5852317416556071,0.0009353678713426763,0.19941203187458936,3371502000000,
-0.5539022069603226,0.009069591638093748,0.19927139882339034,3371507000000,
-0.5704272985406533,0.027503873343337565,0.19956138099512258,3371512000000,
-0.5623337167774471,0.028903065570342553,0.19913359179530418,3371517000000,
-0.5454891022210739,0.00287231307175477,0.19938881345434425,3371522000000,
-0.5508562282123427,0.014177397035727042,0.1988878821215681,3371527000000,
-0.37217888975982194,0.03014244599253848,0.1990579009105429,3371532000000,
-0.549805751905119,-0.006069421259628225,0.19941768361955184,3371537000000,
-0.5551414193198232,-0.02594736496833902,0.19950494123946685,3371542000000,
-0.5645674227508998,-0.019001186838830515,0.19932047310956286,3371547000000,
-0.5637575964974408,0.008252124909475014,0.19915445340304805,3371552000000,
-0.5643821569214865,0.003423931499194858,0.19918996716829965,3371557000000,
-0.5680382217597943,0.024237895067206448,0.19938198651771702,3371562000000,
-0.5502924968347405,0.02274254213536864,0.19938026446158486,3371567000000,
-0.5712531104545238,0.03715099210100577,0.19923491607500582,3371572000000,
-0.5783928651083466,-0.01435588376074219,0.19927387344192818,3371577000000,
-0.5489545611938776,0.005960262001024607,0.19937357173591577,3371582000000,
-0.5501070452334755,0.008628345302380387,0.19935932058273598,3371587000000,
-0.5621728085900093,0.017230255068339598,0.1989456444509067,3371592000000,
-0.5254730300842697,-0.02641191227987949,0.1995371975302042,3371600000000,
-0.5277627889050029,-0.02194731930301316,0.19929941345674443,3371605000000,
-0.5471107210520286,0.0012398904113660634,0.19949253915681292,3371610000000,
-0.5279209068144969,0.009268354512987208,0.19932495637587336,3371615000000,
-0.5477904607977596,-0.008992806066239823,0.19931690862236923,3371620000000,
-0.5489077359413503,-0.00835328737628097,0.1992473254274329,3371625000000,
-0.5502246729450249,-0.019035941987608024,0.19886539850218865,3371630000000,
-0.35661738755780625,-0.005261641484325546,0.19933748012514996,3371635000000,
-0.5374918325332969,0.020505231612362177,0.19963986229373037,3371640000000,
-0.5261328582187182,-0.005155279110531732,0.19946537285521818,3371645000000,
-0.55273520559147,-0.009559452015512946,0.19951213153081987,3371650000000,
-0.5251471282795113,-0.011002611425538239,0.19932136461557792,3371655000000,
-0.5393373094690771,-0.017354341185119936,0.19925043572734835,3371660000000,
-0.5172996990454337,-0.021837509331466484,0.19921294149085084,3371665000000,
-0.5222777425604311,-0.024902389661736538,0.19891623760181493,3371672000000,
-0.49897154459439697,0.016033069303491715,0.19928549309955085,3371677000000,
-0.5315758963543347,-0.019320932875579875,0.19953991928133197,3371682000000,
-0.4970895331845655,-0.010758308036592848,0.19943606498730485,3371687000000,
-0.5287343844958905,0.026308834285834252,0.19937073327370605,3371692000000,
-0.5228951647989106,-0.0013602768877314193,0.19938462492817194,3371697000000,
-0.4975457231680808,-0.0042120296468518195,0.19940133472533914,3371702000000,
-0.5343425578943184,0.0161889304768447,0.19940238091376508,3371707000000,
-0.49888821358492785,-0.009497285481587427,0.19996726824148756,3371712000000,
-0.5132239184273981,0.00014013698499356405,0.19918760388740814,3371717000000,
-0.5343496826947717,-0.005191862467198404,0.19952683047314365,3371722000000,
-0.4799586088284608,-0.014991092804963878,0.1996077709658146,3371727000000,
-0.5022174084106101,0.005576429206467628,0.1992038814119263,3371732000000,
-0.29920588977054796,-0.01805005513586931,0.1996094659466083,3371737000000,
-0.4942704462271377,-0.009765314673218194,0.1994183019782475,3371743000000,
-0.49798534703942604,-0.0569057803147237,0.19916515738039595,3371748000000,
-0.49980798372150087,-0.007998221720727242,0.19944842441966093,3371753000000,
-0.4913986504255852,-0.021576005139467228,0.1993480626123733,3371758000000,
-0.484596842525325,0.0012281519286802978,0.19927252098048806,3371763000000,
-0.517565766496737,0.018028451494311808,0.19982450364962062,3371768000000,
-0.48749840110583464,0.016649421820614747,0.19909955263630963,3371773000000,
-0.4708398218963387,0.008805193144614592,0.1992027910455841,3371778000000,
-0.4779797653269277,-0.004972082385375014,0.1996009877245476,3371783000000,
-0.5004999303591423,0.0037772074761688573,0.19946263831040073,3371788000000,
-0.45826393312637803,0.015799768714635006,0.19949831785207617,3371793000000,
-0.4720535372986226,-0.005705974465212215,0.1995109742907321,3371798000000,
-0.4723159086875487,-0.014819967166160056,0.1995521710260141,3371803000000,
-0.4853829089496121,-0.03862953026693654,0.19977939456011085,3371808000000,
-0.48929018988225004,-0.00907547817432824,0.19941001532849453,3371814000000,
-0.47127780067998576,-0.02662349309270113,0.19982413840143315,3371819000000,
-0.4621555376062694,0.014431826503784339,0.19973702306514107,3371824000000,
-0.46390511701494974,-0.03479005122547013,0.19958099195154122,3371829000000,
-0.4502095445541187,-0.021707148792502916,0.1992716192421038,3371834000000,
-0.24678259873634092,-0.007086587923710335,0.19953432766145066,3371839000000,
-0.47599647204961865,-0.045802504364779964,0.19930436974395646,3371844000000,
-0.42692039327302744,-0.024411671463471958,0.1993468518775274,3371849000000,
-0.4465515761872861,-0.011455681346082887,0.1997014242412356,3371854000000,
-0.4767277816731438,0.014325390068859474,0.19946229779049393,3371859000000,
-0.4554030782669872,0.006583550481069955,0.1995601900823815,3371864000000,
-0.44153503848316633,-0.012287383591456725,0.19968119896821238,3371869000000,
-0.4593951532899716,-0.04718869946364627,0.19995288659329552,3371874000000,
-0.41610908624856746,-0.03401331039360273,0.1997903642184815,3371879000000,
-0.42090510928552577,0.013427963730401959,0.19949476363201277,3371885000000,
-0.43728317433894887,0.0012852911087302826,0.19974588578579405,3371890000000,
-0.4017317532544157,-0.02039802222727847,0.1996817298533887,3371895000000,
-0.43627116960981743,-0.03330660954705446,0.19925662028936653,3371900000000,
-0.4310948732127337,-0.030915274453866944,0.19961618278012935,3371905000000,
-0.43293218295139707,-0.017220354714564432,0.1998040207967073,3371910000000,
-0.4305203020892444,0.013433909752868862,0.19956745464724224,3371915000000,
-0.39955818580941593,-0.002282062958126283,0.1997397784756977,3371920000000,
-0.39858982625548944,-0.019863022738994728,0.19959278085474264,3371925000000,
-0.4031257469242373,-0.030851947507933637,0.199374831991649,3371930000000,
-0.3947978886409216,-0.024893918891506907,0.19962893635410522,3371935000000,
-0.19315644005981256,-0.007219990474278822,0.19968086870884286,3371940000000,
-0.3771310326062977,-0.04285569583960798,0.19977116311692963,3371945000000,
-0.4224970010713232,-0.009948641651344634,0.19977171154762938,3371950000000,
-0.38623599668932335,-0.025292977424796602,0.1997700894410229,3371955000000,
-0.3726906246407,0.009207073744114749,0.19955168769688472,3371960000000,
-0.40681278100012974,0.009693239254718697,0.1998014797150446,3371965000000,
-0.4131785876046681,-0.027316380537456456,0.19971295491405794,3371970000000,
-0.40577631208634335,-0.01902007590734597,0.19944617886719143,3371975000000,
-0.37924241491197563,-0.03227338727079071,0.19988901608333154,3371980000000,
-0.3887327431860295,-0.03814252946212082,0.1993826624767392,3371985000000,
-0.3762355495855504,-0.03869697153150882,0.19933655449210536,3371990000000,
-0.3863316502323566,-0.023704648144362732,0.19970308210231003,3371995000000,
-0.36714128875900276,-0.015756887531070244,0.19956808514493948,3372000000000,
-0.34954939177869976,-0.018577439143128923,0.19982174011459922,3372005000000,
-0.3638783811579291,-0.016651811608616198,0.19982538372621736,3372010000000,
-0.34697067253865516,-0.0028613083239466645,0.1996847629870537,3372015000000,
-0.3305088765477473,-0.005060570617025122,0.199597535736831,3372021000000,
-0.3211443772092704,-0.020592032758244106,0.19960697962797422,3372026000000,
-0.3522040000032928,-0.009972881969717136,0.19959934722124162,3372031000000,
-0.3824810431378271,-0.03331418369224799,0.19972860301889728,3372036000000,
-0.17841519979786752,-0.025718368769587403,0.19978192367958986,3372041000000,
-0.31886756259755944,-0.021351152194565924,0.20020479835740523,3372046000000,
-0.36578628917491424,-0.0074923257274284415,0.19919390478190532,3372051000000,
-0.35439666804634606,0.012652450339862453,0.19960106455106014,3372056000000,
-0.31761670896879235,0.0034709236376702993,0.19942581737852513,3372061000000,
-0.32701315515440676,0.002002358683923698,0.19962199621024707,3372066000000,
-0.33998452140688923,-0.018659747174006903,0.1997127705152413,3372071000000,
-0.31325451172362323,-0.040062301428195404,0.19998245265509182,3372076000000,
-0.32100274368784665,-0.045201730554658974,0.19975124039659195,3372081000000,
-0.29930938716826777,-0.03578318993107857,0.1996905822190328,3372086000000,
-0.36027564867712514,-0.028943385384564944,0.19995387126548805,3372091000000,
-0.3015612643238835,-0.0017969346010593239,0.1999855549287001,3372096000000,
-0.3032529271539636,-0.046611796703774674,0.1997139982291542,3372101000000,
-0.30228625264916376,-0.045326969492608865,0.19977520220541284,3372106000000,
-0.3136359291495565,-0.03433156307529339,0.19943095754358847,3372111000000,
-0.3224121664198231,-0.03709328781083154,0.19998188440622824,3372116000000,
-0.27827678289042934,-0.0473149716128081,0.1997230107482342,3372121000000,
-0.2975968029835575,-0.028434789976874764,0.19980128251728982,3372126000000,
-0.2665542714428693,-0.02865436300261009,0.1993901148546507,3372131000000,
-0.2529908701550286,-0.01853286467235573,0.19985177502853976,3372136000000,
-0.2814208271840869,-0.021690140745922234,0.19964008763644642,3372141000000,
-0.06073540307369683,-0.01748943562483065,0.19972435946405578,3372146000000,
-0.28421610119944707,-0.053322472415657726,0.2000207045568919,3372151000000,
-0.2666386738778674,-0.02745959081420005,0.19995558191320015,3372156000000,
-0.2597733605728589,-0.029144928461205467,0.19981263315184764,3372161000000,
-0.25211373715817526,-0.047915135352281896,0.1999524770462293,3372166000000,
-0.25938257406929505,-0.01544887101812405,0.1997477341502614,3372171000000,
-0.23071395645392154,-0.012407819083027757,0.19978861576983037,3372176000000,
-0.2044340763633978,-0.03484956585167076,0.19962446057092292,3372181000000,
-0.2857298694191166,0.001508479572483415,0.200041473800519,3372186000000,
-0.23890584794575956,-0.062215142439243996,0.1999421219995864,3372191000000,
-0.21160486641556156,-0.021393985804650968,0.19985152640529522,3372196000000,
-0.2293975214500813,-0.04872625457043383,0.19966261432536947,3372201000000,
-0.2250122302723074,-0.01057577681543738,0.19964799667571165,3372206000000,
-0.045874430992615886,-0.015661126828663004,0.19975078750989986,3372211000000,
-0.12981343550868615,-0.05200808227975984,0.1998994943246727,3372216000000,
-0.1961622880277084,-0.027699374592628175,0.1995347618132877,3372221000000,
-0.1907103025965071,-0.03572857923177759,0.199749468154,3372226000000,
-0.18585464250142378,-0.04156456468586063,0.1997524787377044,3372231000000,
-0.19198575386912403,-0.04428145356769053,0.1999397340692346,3372236000000,
-0.21477835900698974,-0.05404014909919516,0.19956203883076562,3372241000000,
-0.173093560061113,-0.028976616885554536,0.19966473391585365,3372246000000,
-0.16312036001821412,-0.05578073939417871,0.19960253269266506,3372251000000,
-0.13345889415165835,0.003653570438725849,0.20030454918949997,3372256000000,
-0.1488299727993076,-0.03249300267613219,0.19986777257291655,3372261000000,
-0.14459703607098962,-0.050504756351558905,0.19968448626000795,3372266000000,
-0.16003477509344197,-0.05162869021158008,0.19991333455434543,3372271000000,
-0.15903594224133882,-0.02690583344845188,0.20039712080259298,3372276000000,
-0.1281223340307765,-0.03169821299359395,0.2001232969000221,3372281000000,
-0.15161104467028652,-0.0011216279496038123,0.19990261901085196,3372286000000,
-0.1641595085140099,-0.06404581504153038,0.19974334651902176,3372291000000,
-0.10758578474521965,-0.06110669954711688,0.19974851789259895,3372296000000,
-0.13393657727959082,-0.07017458214067529,0.19987188195928066,3372301000000,
-0.15709361644097547,-0.030279905955455617,0.2002076966206938,3372306000000,
-0.11367272731752157,-0.06490881738327432,0.19993284792993923,3372311000000,
0.06503330587779006,-0.04541487170426254,0.2000982308801694,3372316000000,
-0.10658768305457464,-0.06852651964873283,0.20009196539281443,3372321000000,
-0.09699490987097024,-0.04846179081095528,0.19973868287225097,3372326000000,
-0.08813285826661729,-0.04255020036415468,0.20025430830466476,3372331000000,
-0.09051990555477203,-0.046474418483365594,0.20005833006704585,3372336000000,
-0.0945799101892211,-0.029410911188297945,0.20030886596816183,3372341000000,
-0.12465746364032637,-0.0493376043102786,0.20006264298501142,3372346000000,
-0.09218139319639544,-0.053908121952631206,0.20012888911754081,3372351000000,
-0.06737071493790056,-0.05304741757583109,0.1999953547163568,3372356000000,
-0.07712809541901867,-0.03277297220464633,0.20003078388967854,3372361000000,
-0.07832802164747338,-0.04521973818735052,0.200358828319005,3372366000000,
-0.17798511022906208,-0.10584019426430505,0.2005931395319417,3372371000000,
-0.029062117474909523,-0.007261722553622674,0.2012071584620372,3372376000000,
-0.05474460083124823,-0.0268288694963681,0.20198940431243576,3372382000000,
-0.03693875778101114,-0.05286233331935538,0.20188465405091643,3372387000000,
0.03101827888775726,0.15172950602870308,0.20226479524228583,3372392000000,
0.033361590496781085,0.10256818448985641,0.20363290326939923,3372397000000,
-0.01830693947770639,-0.012063606824990955,0.20504298656677636,3372402000000,
-0.0074817606642967795,-0.04834997052025283,0.20711208460535024,3372407000000,
-0.004792717110607932,-0.05462877130225276,0.20945731700684594,3372412000000,
0.24832451048974954,-0.05092710264452596,0.21205805285547258,3372417000000,
-0.006392222087889636,-0.04982367994119861,0.2142906487760818,3372422000000,
-0.01968458198335725,-0.04757904729855324,0.2166159345994764,3372427000000,
-0.020899876408626235,-0.04655027848663974,0.21833171037639892,3372432000000,
0.008350638033988268,-0.0695118405531503,0.22001911033147767,3372437000000,
-0.034786592003272,-0.06400381428178914,0.22129845044412103,3372442000000,
0.01443786310700792,-0.05337082056891861,0.22152959485350968,3372447000000,
-0.00499536044472621,-0.05482402504570587,0.22163715814408783,3372452000000,
-0.05214037124131658,-0.02560517922027349,0.22134341002567337,3372457000000,
0.01998547386831675,-0.016160260268786843,0.22029141807233338,3372462000000,
0.029134293942829785,-0.059956161780023054,0.21944914836436172,3372467000000,
0.03853575375832644,-0.0761327095386799,0.21835777598468747,3372472000000,
0.05074164518426835,-0.05311106600668098,0.21708364984328246,3372477000000,
0.047880420564763,-0.03533256730811814,0.21538148910716035,3372482000000,
0.03957765640903043,-0.039253498808593204,0.2143601577159275,3372487000000,
0.06317348766372585,-0.030659735955658494,0.21282753070981095,3372492000000,
0.06595806279612768,-0.03821284533671236,0.2119063123855116,3372497000000,
0.09440597700304221,-0.07050505174584097,0.21125241588938679,3372502000000,
0.049996684352282786,-0.04887393037089668,0.21097273886963588,3372507000000,
0.14614764759936646,-0.029369789979220448,0.21074656121303165,3372512000000,
0.27921497122522626,-0.3637890671388949,0.21038286003468382,3372517000000,
0.1742641698938763,-0.1443414672627222,0.20951752287990225,3372525000000,
0.19130765070603217,0.0020818913191781316,0.20760331145687388,3372530000000,
0.23256117178697078,-0.016679773019746883,0.20522669721205328,3372535000000,
0.2133527127749228,-0.004303392227947521,0.20326434678995778,3372540000000,
0.19899946341839844,-0.018547790469468306,0.20179755389555934,3372545000000,
0.1802290243648485,-0.03324968054809358,0.19894221626965794,3372550000000,
0.1997353232722637,-0.005509615919662723,0.19650972389642116,3372555000000,
0.17403903279791252,-0.02967376065321263,0.1937782411323746,3372560000000,
0.17183135753740955,-0.027342226128230257,0.19090466752723614,3372565000000,
0.2200937138060118,-0.02542047761719316,0.18856265890235296,3372570000000,
0.22184053496641695,-0.030009479867355825,0.18607277388572305,3372575000000,
0.21734571272060468,-0.02227947166107804,0.18266799546098242,3372580000000,
0.19862683651768348,-0.020662327604345092,0.18019151270866965,3372585000000,
0.18436672795306278,-0.0025618426040015024,0.17752739237767184,3372590000000,
0.2365227343033016,-0.01582170510275159,0.1741761894296163,3372598000000,
0.2115688266682872,-0.012433221702377546,0.1695965946408759,3372603000000,
0.23884428284031492,-0.012269333299787882,0.16636047630522632,3372608000000,
0.2653383880828586,-0.05628205566565172,0.16327807049280804,3372613000000,
0.20082633259788785,-0.00228530996632444,0.1599226821731833,3372618000000,
0.5276937365239821,-0.016137740713386955,0.15690762036239092,3372623000000,
0.23404501648375747,-0.005245802728747837,0.15384727819435942,3372628000000,
0.23991051483018644,-0.0030750713324731744,0.150122460567905,3372633000000,
0.24519696782174055,0.000852975723211815,0.146470637028092,3372638000000,
0.3153461150942638,-0.0205140818718281,0.1434364236721642,3372643000000,
0.2682298731818149,-0.0014291800641193305,0.1395257763579544,3372648000000,
0.25378706566257,0.03550819310880145,0.13609646017663238,3372653000000,
0.2676148294483736,-0.0016453666453166895,0.1325488566938103,3372658000000,
0.31858102334169863,0.012863392765610595,0.128534841130779,3372663000000,
0.228861672937878,0.03735240145969844,0.1275061123564816,3372668000000,
0.25835783574156246,-0.0066365698461508665,0.12179011901517268,3372673000000,
0.2990982154025142,0.01796357587845926,0.11756368651775236,3372678000000,
0.26730407566642606,0.043714731300227516,0.11367782846673567,3372683000000,
0.27351027869288297,0.034974283275770186,0.10997945003396019,3372688000000,
0.289239145833274,0.01630553770772576,0.10581880929460101,3372693000000,
0.2901478696911736,-0.044829663807353266,0.10184988096419569,3372698000000,
0.2621665244609691,-0.017471642543675378,0.0982590947885462,3372703000000,
0.30563870096551643,-0.002366414914376378,0.09459428763726144,3372708000000,
0.2734852626139398,0.03676046686207862,0.09127795140703567,3372713000000,
0.2638548230376469,-0.026328540970632523,0.08764278979700826,3372718000000,
0.477955613908629,-0.016768261500711697,0.08472678152724501,3372723000000,
0.23902538512231888,-0.006534176011527398,0.08158871629019201,3372728000000,
0.2778243843630531,-0.003941916763878825,0.0786684772798023,3372733000000,
0.2775232973217122,-0.014567807741763833,0.07551878043728262,3372740000000,
0.29886616843066693,0.0840260767846212,0.07288728802240717,3372745000000,
0.2673413701131489,0.05183938839467961,0.07059398417663137,3372750000000,
0.22371227675063873,-0.015230530671504507,0.06873428503059818,3372755000000,
0.22531012243030002,0.018013546585926313,0.06703426058456867,3372760000000,
0.23283073603822768,0.027668599848779347,0.06590104583235284,3372765000000,
0.22437849199939922,0.014583803214456932,0.06430316239783226,3372770000000,
0.23050510622224757,0.05218733601018165,0.06404582301610733,3372775000000,
0.227654475099225,0.06525074479163723,0.06354992708964423,3372780000000,
0.22720012910700044,0.04085609619494619,0.06280978965805854,3372785000000,
0.22367249512005669,0.0030009763049454845,0.06284564909630955,3372790000000,
0.21166546903958086,0.021712568655069594,0.06319686044124119,3372795000000,
0.1837366933521025,0.0436671495263249,0.06339256700819042,3372800000000,
0.22155468612992987,0.016991905296655892,0.06439815460585048,3372805000000,
0.23772928948741834,0.05922892100839202,0.06581620757155661,3372810000000,
0.261242774932823,0.04923464526688789,0.06668692346547808,3372815000000,
0.24239296434827215,-0.03278650600337929,0.06879774013334,3372820000000,
0.4422611943940613,0.04468331151817562,0.07004777952985218,3372825000000,
0.28738167784226354,0.18380736239498405,0.0726304189992608,3372830000000,
0.2591762310576576,0.10212198795328795,0.07493980751914629,3372835000000,
0.31984134468696884,0.19600585483273342,0.07740071667220529,3372840000000,
0.25002394569836367,0.034084466443140754,0.08038041952667399,3372845000000,
0.236174769253916,0.06210230359469189,0.08401318290429131,3372850000000,
0.2134646450636988,-0.001361533818720003,0.08778381466542581,3372855000000,
0.19291980450925666,0.081178745751861,0.09164449592204184,3372860000000,
0.3722459972388398,0.08905230625379369,0.09549398618611457,3372865000000,
0.4142464151380785,-0.0061131639521172475,0.10040364772045701,3372870000000,
0.4108074569014986,0.14088365998788882,0.10530312423953664,3372875000000,
0.2387407827599894,-0.2042566275417561,0.10811338014927348,3372880000000,
0.23749104397844323,0.08496536102421395,0.11579305905067956,3372885000000,
0.3257320053248397,0.3759126891250188,0.12103691527963831,3372890000000,
0.4367571297078243,1.1486081831570814,0.12714986286022487,3372895000000,
0.3560733754458854,0.414222960518733,0.13377864214996552,3372900000000,
0.19938236340897644,-0.3988233261573684,0.14035423683456633,3372905000000,
0.25853761167910655,-0.5756186755257371,0.14594531304573638,3372910000000,
-0.08935452945632505,-3.8618817556855123,0.15070248482805243,3372915000000,
0.1552648531924547,-1.3160863956016196,0.1542410478140036,3372920000000,
0.5006990742724131,-0.4662501554640905,0.1580761690214294,3372925000000,
0.5512904659125096,-0.22174268673014655,0.16105259198878522,3372930000000,
0.5047287333324774,-0.05914987479084001,0.1646275051403142,3372935000000,
0.3918137553896171,-0.03247611350702593,0.16773180909648316,3372940000000,
0.3004450307789428,0.003175414450046663,0.17089063130217588,3372945000000,
0.35112493935569583,0.01198949503387059,0.1755408613897998,3372953000000,
0.3378589420934494,0.02806498043503064,0.17725827351928033,3372958000000,
0.38689213317769333,0.014860684160207185,0.179289314398477,3372963000000,
0.3909864771716482,0.002185748286094569,0.18156646901343734,3372968000000,
0.3956791968457822,-0.004005660612339903,0.18298981644764098,3372973000000,
0.39320894437157,0.014063298924841957,0.18467249027524402,3372978000000,
0.4011274002879053,-0.007937156417566694,0.1862580428457469,3372983000000,
0.42459502942703814,-0.021150113987532186,0.1874078508511236,3372988000000,
0.39988069580396535,-0.0042336745970926355,0.18881336821062011,3372993000000,
0.43366178825334734,0.007814232838726573,0.1903645703745629,3372998000000,
0.4574506275133048,-0.004841277277742603,0.19131233486491694,3373003000000,
0.44494284804258133,-0.03769528323691532,0.19292246675814195,3373008000000,
0.45306606171497527,0.003212524133243492,0.19316332490386356,3373013000000,
0.4459113988970095,0.012806191834525152,0.19423025557624607,3373018000000,
0.4426648683639288,0.00705404277932814,0.1949464495973127,3373024000000,
0.5771232106884013,-0.02504648109393984,0.19684896169120275,3373029000000,
0.4434655649094572,-0.038511842836715604,0.1972054159105195,3373034000000,
0.45682176238896044,-0.028737526923077628,0.19786499352846262,3373039000000,
0.4727080859779693,0.023238083180455855,0.19865579954538792,3373044000000,
0.45442625979755064,-0.009275086969613955,0.19968162117128757,3373049000000,
0.45259939834111756,-0.018325567982191232,0.20052544247326987,3373054000000,
0.4527182393361025,0.012526682277392759,0.2009861788838787,3373059000000,
0.478961780613572,0.015566040580695715,0.20146967450983871,3373064000000,
0.4808140758595006,-0.009512007546094665,0.2022948016647976,3373069000000,
0.4536158527048816,-0.005556538692241144,0.20306066232591916,3373074000000,
0.45351841304635454,0.03103127235396047,0.20331896636231772,3373079000000,
0.4637855893177493,-0.0016328306697157,0.2037126243965314,3373084000000,
0.4899507503430477,0.031591906527392674,0.20458968840932482,3373089000000,
0.46467132522756815,0.017097179600061286,0.20498630766558934,3373094000000,
0.4846776021649894,-0.005011541258446994,0.20491974397749388,3373099000000,
0.44624423499660826,-0.015675566211611515,0.20544071397220082,3373104000000,
0.4737091713207383,0.02308966602423931,0.20571597519472243,3373109000000,
0.4608597067382723,-0.014707364519492437,0.2063794837952281,3373114000000,
0.4723268421538731,0.0018989954269312036,0.20647934940463064,3373119000000,
0.4502373515118295,-0.0005615992220510905,0.20645491712645594,3373124000000,
0.6376905926725744,0.00320436895687873,0.20721597756395463,3373129000000,
0.5090623083497311,0.006187252871896514,0.20709349692575196,3373134000000,
0.49042649002394795,-0.011612174946239336,0.20728353186758403,3373139000000,
0.4539444610874564,0.03804275878028853,0.20742291135366947,3373144000000,
0.45796340178161044,0.030659974468989118,0.20808498626721728,3373149000000,
0.4927818739696071,0.02258277061153955,0.20809580469338315,3373154000000,
0.48641191987156973,0.017076923298025952,0.20799104562270268,3373159000000,
0.2898229337397814,-0.03624798582887053,0.2085692954902189,3373164000000,
1.020485255476872,1.5802520284138961,0.21019716337964753,3373169000000,
1.137218083013819,1.1842355754311347,0.21198871644947598,3373174000000,
-0.16946200124433633,-1.7785493099296406,0.2122253584165537,3373179000000,
0.022861041779700754,-0.6326425060192595,0.21275475212760708,3373184000000,
1.6522660940017717,2.532892126265897,0.21505182204207646,3373189000000,
-0.17361034417045448,-1.7442678589279645,0.21474049979236678,3373194000000,
0.00017615090051574522,-0.6814131635112987,0.2162172041090843,3373199000000,
0.6770556794056861,0.517207289399673,0.21692658422210664,3373204000000,
0.9772396684752498,0.5019266396326385,0.21706121561881664,3373209000000,
-0.06830267222167949,-0.8294087898811641,0.21754389181771927,3373214000000,
0.3519240249203913,-0.32713071579019865,0.21750142730828506,3373219000000,
0.9555253716771038,0.513958606443309,0.21760155779809645,3373224000000,
0.18173842772672208,-0.38286474189388586,0.21720596451770915,3373229000000,
0.5269635465181111,-0.169840290698673,0.21737097738064448,3373235000000,
0.47494352754341435,-0.06771428733377846,0.21832034053925384,3373240000000,
0.8166567430944829,0.12454410779450051,0.21760762600282627,3373245000000,
0.18896023042880203,-0.03309866460613419,0.21715040587580375,3373250000000,
0.4566682636452868,-0.01564376956135322,0.21706894234918023,3373255000000,
0.5610394552372189,-0.03448734736451406,0.21755777399021142,3373260000000,
0.7921291044576336,0.06286644723768348,0.21723823281727664,3373265000000,
0.23584486867341614,-0.03522705652902655,0.21675124084750638,3373270000000,
0.4318141700264144,0.01965988875861641,0.21731888769951407,3373275000000,
0.5270620411295494,0.013152396959067066,0.2180794345148239,3373280000000,
0.845120625572834,0.03715401254330861,0.21797930962699402,3373285000000,
0.3281476083880083,0.02364791952247323,0.21757555814725063,3373290000000,
0.3890341756611349,0.01375043579831236,0.21837582212111117,3373295000000,
0.543729793375192,0.008858925765191188,0.21911833546601367,3373300000000,
0.5365762381803142,-0.04393348757310005,0.2191332966710024,3373305000000,
0.604464602854083,0.04928487611713665,0.21837703283596085,3373310000000,
0.3848510927227724,-0.05546170711770852,0.21895870837368153,3373315000000,
0.5222139243306071,-0.012850095417785097,0.22019438748644624,3373320000000,
0.8138330968493929,0.08872569338506975,0.21995397846375234,3373325000000,
0.16359961744509346,-0.1235197809989457,0.21921739520599617,3373330000000,
1.214550953565502,0.8976784635702756,0.21889067120612304,3373335000000,
1.406194990296671,1.7075895050919658,0.21628225721356123,3373340000000,
-0.06607256850822235,-1.5937291736741657,0.2146737632474157,3373345000000,
1.191880521508399,1.634480766260418,0.21447567591091382,3373350000000,
0.9478146491431717,1.4168632686791087,0.210305361293602,3373355000000,
-0.49389194579443185,-2.4892914350219932,0.20831840729333087,3373360000000,
0.21638326804524274,-0.9248699640683088,0.208188708538655,3373365000000,
1.7388662503161243,3.2619908480694297,0.20555234591345103,3373370000000,
-0.17477254061054776,-1.851805972909777,0.20227174257771255,3373375000000,
0.05461628665703423,-1.0542423437427475,0.20232318464720425,3373380000000,
1.2970865353412657,2.021147259204616,0.20085744823907845,3373385000000,
0.17991817293469273,-1.081252004081464,0.19894183183157838,3373390000000,
-0.0702861569780662,-1.4427829775333543,0.19870579262744342,3373395000000,
0.5778310246799165,0.33836102937431717,0.19959416100629343,3373400000000,
1.239589500769529,1.5122365252947227,0.1971545170936323,3373405000000,
-0.2175960525549074,-1.8077976721451194,0.19726682467260415,3373410000000,
0.07583824080865353,-0.7880010312787598,0.19816022400771618,3373415000000,
1.9094857304904902,3.1240630893851646,0.19678727254028916,3373420000000,
-0.3271156879489909,-2.1887457091081037,0.19684297650607271,3373425000000,
0.02076666825362193,-0.9053087484955181,0.1977364469391424,3373430000000,
1.9054608143270466,2.794661138201955,0.19733040549907627,3373435000000,
-0.10164740056718133,-1.6566512163134912,0.19831365735740583,3373440000000,
-0.07160813745707725,-1.0831209523601162,0.19845601185364373,3373445000000,
1.5303170358491793,2.3613637966462813,0.19801555969593815,3373450000000,
0.10760785816953704,-1.0782850398512136,0.19750531031492644,3373456000000,
-0.03703970897448795,-0.9117352728910171,0.19769259860748647,3373461000000,
0.6359973942948699,0.5748149832307474,0.19760529577780214,3373466000000,
1.2398495396557336,1.1816818188043892,0.19766062081183336,3373471000000,
-0.18623377130725635,-1.4630184520544374,0.19773663590581883,3373476000000,
0.11621649597311973,-0.6240927022521595,0.19833361272585426,3373481000000,
2.1397304172191527,3.3192257113935972,0.19890559547942308,3373486000000,
-0.4291250836382182,-2.1652232693272424,0.20040043576743605,3373491000000,
-0.4866417849367294,-1.1141569063220922,0.20203543701716434,3373496000000,
2.7941653917013785,4.11972963379414,0.204191048655048,3373501000000,
-0.3311288822092358,-2.410080082368812,0.20628732392047922,3373506000000,
-0.23792168745945608,-1.077114542926372,0.20704914439331337,3373511000000,
1.6284610323863222,2.471473652013716,0.2096480554720249,3373516000000,
1.5880350499619607,1.8298923381076633,0.2122544623609451,3373521000000,
-0.8911722661809003,-2.6178843393700335,0.21333153456062837,3373527000000,
0.04991224850114919,-0.8849448427204372,0.21410160812885018,3373532000000,
0.3611391629249809,-0.301968091990085,0.2146639421927246,3373537000000,
0.9429721978338099,0.3569163195124647,0.21486408113004124,3373542000000,
0.327180168398054,0.20058900215288136,0.21508674818650816,3373547000000,
0.28973180826224904,-0.41428589662724036,0.21593596883457122,3373552000000,
0.7387778923616789,-0.07998247345248229,0.21592256040566485,3373557000000,
0.5435451757003754,0.3231393873711196,0.21549179925384784,3373562000000,
0.296691322106877,-0.29578529946486726,0.21677598011493476,3373567000000,
0.4597035336605507,-0.0577945427568721,0.21708710058831407,3373572000000,
1.1587894392926774,0.7898083002332934,0.2155381820325594,3373577000000,
-0.04990805778479253,-0.5834271423972933,0.21630924877533958,3373582000000,
0.43540552169742724,-0.16614008913777187,0.21659123930827184,3373587000000,
1.0779345306052905,0.6724046950871999,0.21547535307388185,3373592000000,
0.02764189215436716,-0.5002347905479568,0.21554352146013625,3373597000000,
0.5895993370916548,-0.09819473089612718,0.21632754276316782,3373602000000,
1.0947126924853399,0.6663477944658478,0.21462822847346258,3373607000000,
0.11564164490359899,-0.42999920914501755,0.2148262547155488,3373612000000,
0.3665961231562518,-0.1554498637688912,0.21484729725775034,3373617000000,
0.9243379225982196,0.4151602748070913,0.21309551622808254,3373622000000,
0.3609285630042756,-0.21144339402424184,0.21229311289928512,3373627000000,
0.1868042336953952,-0.17924545504213932,0.2130294191965133,3373632000000,
1.08456325836093,0.720300503590217,0.2121403928542039,3373637000000,
0.22002228406778235,-0.43317026664788094,0.21115975781333424,3373642000000,
0.38588094055727046,-0.13381404120828133,0.21096044413484194,3373647000000,
0.4304140401946001,-0.07688358265276517,0.21178159362684418,3373652000000,
0.8050003461103709,0.5179189561383323,0.2109846353709862,3373657000000,
0.31004223848429807,-0.3554280881060382,0.21036412914763777,3373662000000,
0.41427094838918277,-0.07365247170353756,0.2101726115446029,3373667000000,
0.4523861118596353,-0.019594661508968568,0.21004805907976556,3373672000000,
0.5359509837689007,0.0062404523826514475,0.2095993612220025,3373677000000,
0.4690636114221867,0.008037158883697573,0.21014009899024874,3373682000000,
0.4614660826887778,0.02236897764918959,0.2100371096693838,3373687000000,
0.5042119437806668,-0.02389644350025858,0.2096675591990427,3373692000000,
0.5384124424212057,-0.04725764034333266,0.20951301017977786,3373697000000,
0.5538067837623794,-0.004612047117171814,0.2093911451334154,3373702000000,
0.5852026294077535,0.07287830219096697,0.2087173299777797,3373707000000,
0.43297950758646897,0.04892485481021816,0.20751685212800708,3373712000000,
0.5066060241009144,0.044368760890626004,0.20641366646471482,3373717000000,
0.43844387024206455,0.02553755632383289,0.20396534982958756,3373722000000,
0.7075296121048691,0.4026568378618371,0.20138855552046764,3373727000000,
0.32822438144826854,-0.26479885856558494,0.19871379152986107,3373732000000,
0.9796968069819223,1.049093347792822,0.19644426919282681,3373737000000,
0.6280541497577895,0.36272601441863106,0.1948012508607533,3373742000000,
1.061114833408437,1.164178032970239,0.1909249605011799,3373747000000,
0.571697611755489,0.2176080769916175,0.18930938231570307,3373752000000,
0.7061130781493482,0.5116947058279551,0.1881749800602579,3373757000000,
0.8739170313287101,0.8004499011902941,0.18698358790185088,3373762000000,
0.6086196331430652,0.3050521557052081,0.186527732738271,3373767000000,
0.3897681121645165,-0.11485863095352213,0.18697147608401124,3373772000000,
0.4137054939489325,-0.08225368288392453,0.18753553029501152,3373777000000,
0.4060980190000012,-0.02774767840569773,0.188913882766463,3373782000000,
0.4691390770829186,0.04331048264201862,0.19065663304816483,3373787000000,
0.45887883895774,0.06707044296164355,0.19237740153504643,3373792000000,
0.3985734462837334,-0.13782743313197024,0.1944612723100342,3373797000000,
0.4032685886873419,-0.14373482743328114,0.19660663904287004,3373802000000,
0.41122115722931524,-0.05544610988765804,0.1981371672533327,3373807000000,
0.7299208952751624,0.13060005824032572,0.1994752022830409,3373812000000,
0.40930877433269536,0.016565077214943144,0.20052651885719816,3373817000000,
0.4273450630023173,0.0413529366113977,0.20116577386315074,3373822000000,
0.3681231650071932,-0.11416907688889988,0.20143730511043972,3373827000000,
0.4895590612751894,0.1274366448428746,0.20128023436531087,3373832000000,
0.4537579781498794,-0.010262193301337756,0.20066672443006295,3373837000000,
0.36906335490315734,-0.12673994885598577,0.2005742690513824,3373842000000,
0.41652409908057947,0.0642637393669046,0.19948436539856024,3373847000000,
0.401241328654605,-0.03898223240709404,0.19869837886708785,3373852000000,
0.3916774661090761,-0.024616085920834477,0.19765400310750478,3373857000000,
0.5335508975053054,0.14245820044345003,0.19708564476814375,3373862000000,
0.31632629624758457,-0.10884089370090025,0.19606869806990462,3373867000000,
0.43195757369570104,-0.009266826377412666,0.19533258259016453,3373872000000,
0.47864306557316044,0.1307105913888724,0.1949899837142853,3373877000000,
0.40991804176343427,0.05154435528087249,0.19446945128304483,3373885000000,
0.42436371898194897,0.05583688306964522,0.19405639506272399,3373890000000,
0.3120687195544437,-0.20168483306875729,0.19394900607647295,3373895000000,
0.4693430872084992,0.15466301944010538,0.19428396998884134,3373900000000,
0.3447741851376807,-0.10445527216319327,0.19421274383124207,3373905000000,
0.4067001127551931,0.06122026617074494,0.19499128776224772,3373910000000,
0.5668814555768242,0.060499430817926254,0.19557129270690543,3373915000000,
0.3104751484016453,-0.17923527271203288,0.19567174240752275,3373920000000,
0.4307200318223671,0.07198717510733774,0.19598458803423052,3373925000000,
0.3478452874520099,-0.034340791564794956,0.19649279676641582,3373930000000,
0.376965068891241,-0.03585430777543958,0.19643544835376534,3373935000000,
0.4205940710739866,0.07172905120025352,0.19673942494067037,3373940000000,
0.3829852493940536,0.030661433285185904,0.1969828156298849,3373945000000,
0.3161170218121021,-0.08593752654296148,0.19738026305609938,3373950000000,
0.48654016245531834,0.21707233804179868,0.1973262409563133,3373955000000,
0.36772439809756635,-0.06592604030342193,0.19701477653407573,3373960000000,
0.38313629714030706,0.11112564428276821,0.1969353521030028,3373965000000,
0.2954590027761667,-0.16237781449434754,0.19666949992880703,3373970000000,
0.4189141119915146,0.15326052430919096,0.19640432374709652,3373975000000,
0.35082113396101217,-0.01673482058552904,0.1959035758430252,3373980000000,
0.329563591640622,-0.015514325331206228,0.1962201217197116,3373985000000,
0.38960672984388567,0.050079900861631124,0.19558797561561642,3373990000000,
0.43739349606787803,0.08226517321587612,0.19520026531464835,3373995000000,
0.19564534259481192,-0.23257209877047097,0.19579647039216533,3374000000000,
0.30319190537134516,-0.10986942611111244,0.1951321713556877,3374005000000,
0.09600011017213377,-0.42985902601541176,0.1929298047629496,3374010000000,
0.5427427556999664,0.057058161261267025,0.18920461195758215,3374015000000,
0.47225463064306356,0.23054271556365838,0.1851237478676143,3374020000000,
0.49289260682181607,0.295845189681571,0.18228288507470566,3374027000000,
0.32350436126405757,-0.012552841898437223,0.17909349019758453,3374032000000,
0.23046234941583282,-0.22803260416533647,0.17802939011416122,3374037000000,
0.38572244788889704,0.1300242450353833,0.17833587440902088,3374042000000,
0.30266609592984683,0.009529634643785095,0.17974617268176335,3374047000000,
0.17519087389124033,-0.19995977310731478,0.1821167833779244,3374052000000,
0.2671877141751435,-0.03400187141008794,0.1855561450332309,3374057000000,
0.33956363549626817,0.06731907473086494,0.18884528326018554,3374062000000,
0.22285493775148363,-0.1462838718357671,0.1927217743558643,3374067000000,
0.32612399727777336,0.07676212957444772,0.1959094470235457,3374072000000,
0.3173264040851968,0.03483522903319698,0.1994535420180519,3374077000000,
0.23249994511020905,-0.10879791180656576,0.2024782114508011,3374082000000,
0.2054902038370385,-0.10845145155337615,0.20470568541098474,3374087000000,
0.23224744825320318,-0.06476071189559064,0.20604734096173985,3374092000000,
0.30014884622033794,0.06061739762277009,0.20692642341214051,3374097000000,
0.23804080841793443,-0.06922962743817468,0.20703769459268723,3374102000000,
0.3071659864967964,0.015548528481288706,0.2068106382159963,3374107000000,
0.2051985272028461,-0.11685255013162532,0.20564388400522385,3374112000000,
0.4484368867146102,-0.04261047221719925,0.2035503028187691,3374117000000,
0.3377969928265792,0.03168941171283862,0.20181707962564233,3374122000000,
0.19671417998955004,-0.18501007300640582,0.19954308629483247,3374127000000,
0.30340479960365685,0.12486879266196842,0.1975279453137052,3374132000000,
0.1986443558518142,-0.11641251579579817,0.1956031429175467,3374137000000,
0.2879985626794561,0.05995545937649996,0.19394991565243969,3374142000000,
0.2082461211475717,-0.04609179240919466,0.1927192380251431,3374147000000,
0.19904734108119054,-0.0728124549778368,0.19133938844056095,3374152000000,
0.2107832601811854,0.01683221358098755,0.1912285312520849,3374157000000,
0.2146986233708657,-0.06650219388400609,0.19150969692868014,3374162000000,
0.20899335976722883,-0.07952600841315548,0.19113053123664317,3374167000000,
0.23312967604255752,-0.013165483886678517,0.19257258285942555,3374174000000,
0.13721821315977914,-0.11178467401284006,0.19383579918014843,3374179000000,
0.22098512773852733,-0.01942330136558005,0.1950038378623514,3374184000000,
0.15564681693709023,-0.09046037206847957,0.19658621573489718,3374189000000,
0.2236743585575672,0.01193080572328466,0.19754566751978153,3374194000000,
0.17242847836321826,-0.02778320465967194,0.19900432209320337,3374199000000,
0.2149940070081578,0.006224082114781783,0.2002389693273655,3374204000000,
0.17925872737235618,-0.03738102873988432,0.20079172924473895,3374209000000,
0.20833927137188943,-0.004754619549796196,0.2013919095384769,3374214000000,
0.3728537028917574,-0.04335917802884254,0.20141323711391798,3374219000000,
0.15801373727368673,-0.015258338932505083,0.20171566507306005,3374224000000,
0.1505556101552366,-0.07066673662751995,0.2010131995535745,3374229000000,
0.18822163386232604,0.05496164451382143,0.2005334602479587,3374234000000,
0.12464006696184537,-0.08766307752618863,0.19981264219181302,3374239000000,
0.18727914826294162,0.005180318560617476,0.19913207715989306,3374244000000,
0.127036560039735,-0.07693855923375771,0.19842879391056897,3374249000000,
0.1184627594453577,-0.07178644885452864,0.19796016342008335,3374254000000,
0.1611703562836027,0.0018243098767784516,0.19729753317354534,3374259000000,
0.19055086759655795,0.023194009924592526,0.1963298909558662,3374264000000,
0.14577112872835393,-0.050478146659020215,0.1964738414328632,3374269000000,
0.09927169132825417,-0.04343935278894419,0.1960535254164847,3374274000000,
0.13188681144588552,-0.06570150896947377,0.19599149561659407,3374279000000,
0.12988905145733035,-0.06682550876998192,0.1963025007590392,3374284000000,
0.14329734883666273,-0.030934420649597803,0.1961882246427718,3374289000000,
0.1363223948637523,-0.011814371608195318,0.19675690342197255,3374294000000,
0.15179827756351366,0.005523240237633856,0.19736333731267355,3374299000000,
0.10619019784347125,-0.05741023820484367,0.1980913671306226,3374304000000,
0.09797348926504412,-0.03161709588026083,0.19851955182818232,3374309000000,
0.11436890255398403,-0.04712734859654638,0.19920300023014267,3374315000000,
0.2850378345226151,-0.07589953949913553,0.19997368823714595,3374320000000,
0.1159053793742529,0.01685125540994615,0.19998090027477738,3374325000000,
0.11773090053751002,-0.03264859224294864,0.2005814220335482,3374330000000,
0.0990744335648842,-0.04736600479978956,0.2001830097572781,3374335000000,
0.10508014537829571,-0.054143538844834194,0.2006780732420779,3374340000000,
0.08922975870283949,-0.044278566500392275,0.20049763347074157,3374345000000,
0.07812838762385811,-0.028394777646446205,0.2002189864547752,3374350000000,
0.08283843827377432,-0.04672907532639013,0.1998780143744331,3374355000000,
0.08378549657728451,-0.0475304687812373,0.19971175621234774,3374360000000,
0.10860418696791506,-0.028615677292167612,0.1996591109725637,3374365000000,
0.07265327107663556,-0.010578206650559373,0.1991617272047653,3374370000000,
0.051590052773173724,-0.05383228074056471,0.1989145878304304,3374375000000,
0.056010969526950324,-0.02324272332934603,0.19904103052284774,3374380000000,
0.06018341306667785,-0.0394973896228139,0.1987066901822129,3374385000000,
0.08093051598881712,-0.026302373599734707,0.19838649763187582,3374390000000,
0.07085632524030999,-0.010364665280391924,0.1987467777899346,3374395000000,
0.012862718366798746,-0.038522143766481366,0.19876606195464133,3374400000000,
0.05529259987398862,-0.04919823409308095,0.19915141396366529,3374405000000,
0.04314924548287123,-0.036432865130148456,0.1990033402913394,3374410000000,
0.026109458645329146,-0.01927318874576577,0.19942730719490318,3374415000000,
0.013999450425937426,-0.07078808725417418,0.19962338152165782,3374420000000,
0.24261989313401824,-0.02681077730972909,0.1999245973730119,3374425000000,
0.0756814067452474,-0.0010955080391144394,0.1999630758358181,3374430000000,
0.0784126773577788,0.01811906330285809,0.2002515591418243,3374435000000,
0.046143170725718635,0.029379386702237137,0.20056301205974741,3374440000000,
0.04083006216875394,0.009731449800781408,0.1999414510380677,3374445000000,
0.06949380621385594,0.06021090211820337,0.20027014748406213,3374450000000,
0.020470532961213043,0.06300777078533451,0.20035565733489696,3374455000000,
0.06975379439962796,0.027073807639235843,0.2004669069301689,3374460000000,
0.05563330818674222,0.03523162912000818,0.2006905431940266,3374465000000,
0.03769978825253857,0.01950337189389919,0.20055359283661967,3374471000000,
0.006411953262362088,0.021659446953950067,0.2001758413829402,3374476000000,
0.053238514051879536,0.034210409919543563,0.2002481977824776,3374481000000,
0.0689518755618099,0.018294258003663594,0.1997581776509785,3374486000000,
0.02246713440286654,0.04861576369970248,0.19971997180542483,3374491000000,
0.03932847977364384,0.012518700401616924,0.19998913723185482,3374496000000,
0.034892634510237434,0.057968594433815274,0.1999135978246863,3374501000000,
-0.003455651766388344,0.009279666058979452,0.20003058709183566,3374506000000,
0.019817943526099467,0.018319979413565415,0.1996776305451093,3374511000000,
0.0038863941342078025,0.021283157383422367,0.20008594393874526,3374516000000,
0.00016940890973077402,0.02053639217851111,0.19989228596170003,3374521000000,
0.20018185903977884,0.06986477611554996,0.20019094298367712,3374526000000,
0.012557523125703036,0.039371796828646395,0.20007232310825246,3374531000000,
-0.032815530968146926,0.06189292050800563,0.19999439862433757,3374536000000,
-0.02528918365139208,0.04746240418255184,0.20013660372382447,3374541000000,
-0.021359233136668865,0.008437909129434654,0.1997041731106663,3374546000000,
-0.016457638276118368,0.027787001388664852,0.19996443772559294,3374551000000,
0.002427693610728251,0.01765185652101325,0.20000278780267014,3374556000000,
-0.018665209734263586,0.03528746003376253,0.2004065376491262,3374561000000,
-0.04192856093123898,0.020837101479862213,0.20037759406745384,3374566000000,
-0.008902015943905536,0.03931903076130215,0.19991595766814269,3374571000000,
-0.05577530170977439,0.033299272177977686,0.19988143619885654,3374576000000,
-0.04188585717130556,0.04541763049381971,0.19991912400008308,3374581000000,
-0.0628573818152514,0.05448642185980279,0.1996789705439402,3374586000000,
-0.04262418079804727,0.04672486342045356,0.20010882830127322,3374591000000,
-0.04773672141660564,0.042396788372890355,0.20018292395851253,3374596000000,
-0.0396252002892833,0.03916311306305273,0.19960976542472958,3374601000000,
0.027189068257842133,0.12249140529586584,0.19964088908897182,3374606000000,
-0.0548631675606239,0.05968046096829685,0.19917306563237983,3374611000000,
-0.10953751794181482,0.07087308405881415,0.19869511355724967,3374616000000,
-0.05533331218738274,0.04770591907971277,0.19868328790437115,3374621000000,
0.1159760864513202,0.023762916491637837,0.19902078735311193,3374626000000,
-0.0722774152161327,0.0666513407519404,0.19868229656303066,3374631000000,
-0.07525884470184989,0.06397666902621837,0.1984688662560246,3374636000000,
-0.08202462772056664,0.040419621555449675,0.19895445688386723,3374641000000,
-0.0931524419275281,0.05433980462433208,0.19923805157336794,3374646000000,
-0.09166309247283885,0.029738061010358502,0.19911493693670726,3374651000000,
-0.07235538654505017,0.05213887935449795,0.199224735547507,3374656000000,
-0.10038705403955886,0.0419023853639543,0.2000484052801537,3374661000000,
-0.0968493137983737,0.03307379426207234,0.20000209650805617,3374666000000,
-0.10484325307224082,0.02839074699397392,0.20047354264042352,3374671000000,
-0.09045316110501105,0.050100386457272626,0.20052961366050515,3374676000000,
-0.12974509337866436,0.08424538782514,0.20069997971788792,3374684000000,
-0.11912218054624729,0.037991381743932455,0.20077912025500738,3374689000000,
-0.13150193623774037,0.048725210816210535,0.20057178972221046,3374694000000,
-0.14841694624951038,0.03307487488337033,0.20082096286803766,3374699000000,
-0.09992690745838943,0.05596904638504453,0.20023820510768095,3374704000000,
-0.1452743633558935,0.02130064709193482,0.20066979378310937,3374709000000,
-0.13148891315992647,0.030693033236381097,0.2002264338921221,3374714000000,
-0.11846777464553825,0.04602323548911165,0.20007264068245975,3374719000000,
-0.1391358687183127,0.070019236514401,0.19969008097642674,3374724000000,
0.056735157575302446,0.05447308792129912,0.19946616296616732,3374729000000,
-0.1350290325932268,0.04993231427922738,0.20004069199057778,3374734000000,
-0.16640409129804792,0.044002305278154165,0.19944232090782965,3374739000000,
-0.1320980507000504,0.004369472353685573,0.1993271636020481,3374744000000,
-0.1558719963183637,0.0333306731469656,0.1991078058283596,3374749000000,
-0.188825980627396,0.08715688447931405,0.19945279638869748,3374754000000,
-0.16718897495872065,0.05309844745374414,0.19967332161334206,3374762000000,
-0.16542434636605793,0.05218960350416638,0.19958158812692653,3374767000000,
-0.155853455265963,0.06209674662079399,0.19978598159532032,3374772000000,
-0.14578563288241608,0.057027899236584995,0.19992590076701702,3374777000000,
-0.1592710661030559,0.04925766337832437,0.20009510975171005,3374782000000,
-0.17793431480384572,0.06725999869532262,0.2000742101966351,3374787000000,
-0.1851402151939173,0.0481891178638787,0.20001473541034726,3374792000000,
-0.20545148112512127,0.032526960929565654,0.19976558035367342,3374797000000,
-0.19204573030335526,-0.008678889527983458,0.20025369924597283,3374802000000,
-0.168814339950014,0.07169181052037683,0.20014589331311697,3374807000000,
-0.1871478968315337,0.013697521195791693,0.2001386168114296,3374812000000,
-0.19452916921484337,0.04142925466840658,0.20002843810917628,3374817000000,
-0.18598464915370078,0.02518569129151281,0.20055119598177534,3374822000000,
-0.19314966647511095,0.06291939363001756,0.2003186783497405,3374827000000,
-0.011675572668454398,0.05305137777163492,0.19979981970291105,3374832000000,
-0.1756223918678844,0.045818076753408446,0.20023550726131115,3374837000000,
-0.21140705494500675,0.058014166708683784,0.19990058540086825,3374842000000,
-0.24891256837257328,0.054866351952735946,0.1996471288752747,3374847000000,
-0.21110474866466217,0.0760283480861822,0.19997454053954045,3374852000000,
-0.1737139508436,0.0326236266623743,0.19993921699415504,3374857000000,
-0.20428965215818015,0.036172540743824075,0.19995380000749408,3374862000000,
-0.2527969911330292,0.011084093918105255,0.19984272040864604,3374867000000,
-0.23885849159812286,0.06297595499354858,0.19953011096224144,3374872000000,
-0.2725447297447813,0.053908898815815294,0.19978565553342684,3374877000000,
-0.21269201631818674,0.08617548978412029,0.20016657947646396,3374882000000,
-0.2027055936735706,0.06622306088977754,0.19985993421746864,3374887000000,
-0.24992351524219328,0.043662789905607374,0.1996949573442644,3374892000000,
-0.20930208767817177,0.05018681609894584,0.19985004092260467,3374897000000,
-0.22137396480105986,0.053199147619411295,0.19959631386586124,3374902000000,
-0.22825922312190272,0.07096192256468352,0.19962456848430765,3374910000000,
-0.2907479756458649,0.05514315019664163,0.20035423747386713,3374915000000,
-0.2265696566966236,0.07646299152160987,0.1997204781762647,3374920000000,
-0.22771789525560243,0.06408493007069442,0.199868631694533,3374925000000,
-0.24800653527918035,0.04164748065270723,0.20028888330856953,3374930000000,
-0.035532590933102196,0.04984166532051089,0.20035472559085923,3374935000000,
-0.2364721831437054,0.047299013396582636,0.2005086300995988,3374940000000,
-0.25979388374967877,0.077243550424022,0.20021710803289774,3374945000000,
-0.23288255799480095,0.05554207194376397,0.19981111241338553,3374950000000,
-0.286056859537705,0.039263269828610545,0.2001432061850477,3374955000000,
-0.254881540406533,0.04938674070252887,0.19956290745949098,3374960000000,
-0.25759820281439566,0.0501229485887766,0.19975759361361953,3374965000000,
-0.24425090768881336,0.04191478826327625,0.20007351502467352,3374970000000,
-0.2591358421199827,0.050010665304428034,0.20022225717501432,3374975000000,
-0.2308004974627207,0.04755482925864231,0.19978564492403114,3374980000000,
-0.27962885040827734,0.03874084274998711,0.19983371218072254,3374985000000,
-0.27605036716022985,0.05604757153046398,0.2000788231703155,3374990000000,
-0.2439197548416743,0.05311109342121908,0.1999545031843494,3374995000000,
-0.09122168003346201,0.05791935135569232,0.19984312001232793,3375000000000,
-0.27401503678383665,0.06981153440041356,0.200032103776487,3375005000000,
-0.2639276714380822,0.059845004679887175,0.1994781289916003,3375010000000,
-0.2856253506031857,0.06113617293889633,0.19975586850141322,3375015000000,
-0.27761296255783435,0.05002435964410482,0.19977614320290654,3375020000000,
-0.26504305144827256,0.07370529591617454,0.19959993362179268,3375025000000,
-0.2869465328552748,0.05702779424268954,0.19958977573458891,3375030000000,
-0.2777543848629015,0.060770066531108814,0.1998415259843949,3375035000000,
-0.29618906541839074,0.05364934437907434,0.19963257055406033,3375040000000,
-0.3159978405831857,0.10211554737028855,0.1998797952563299,3375045000000,
-0.28741554030265304,0.04082390343363314,0.2000837007725424,3375050000000,
-0.27914035190683795,0.047415296170039846,0.2002160561565896,3375055000000,
-0.2906714584034529,0.031664444855961676,0.19992993765393038,3375060000000,
-0.2567444035863889,0.05456384166915108,0.20006382972151088,3375065000000,
-0.3005696306933118,0.06636723124779155,0.20006945290152212,3375070000000,
-0.3106265450258932,0.0755633342094975,0.2000166018636512,3375075000000,
-0.2710523291658029,0.07307604091687764,0.19943549881462727,3375080000000,
-0.28011002728125095,0.036863878464486424,0.1997174421998469,3375085000000,
-0.29869835694621494,0.05382515723314242,0.19985409841189067,3375090000000,
-0.31741460302829166,0.06544758061970905,0.2000635769490479,3375095000000,
-0.3192544667871147,0.041530286256202524,0.2000443454607887,3375100000000,
-0.08316049432830971,0.06092346787361239,0.19973651188629957,3375105000000,
-0.3232823344265402,0.060929744105814636,0.19997338797978,3375110000000,
-0.3059896092119129,0.060989687989248725,0.2000027208298206,3375115000000,
-0.3253224954304412,0.06552076659443445,0.19993077624745242,3375120000000,
-0.320625890255527,0.04757967064256319,0.1997300151431543,3375125000000,
-0.29131592120128175,0.05774516838878521,0.19990186127700105,3375130000000,
-0.3033912547755637,0.048861131759581955,0.19978981124140924,3375135000000,
-0.285311742689615,0.03550203914373365,0.19995640625816186,3375140000000,
-0.3270249759771464,0.06016784739390371,0.19960641051340608,3375147000000,
-0.31160706488226086,0.04645235177533931,0.1997993963475494,3375152000000,
-0.31702203007302737,0.04392103279009918,0.19993185837087293,3375157000000,
-0.30412262432945414,0.03277535549546026,0.20003547920711262,3375162000000,
-0.30556356414341435,0.08039048248929587,0.1999645053863688,3375167000000,
-0.2860781016181166,0.06761481338517747,0.20030873698959398,3375172000000,
-0.3250794432037363,0.04655399945002593,0.19992035954073878,3375177000000,
-0.29750955532684287,0.06860756483873318,0.19960500273340326,3375182000000,
-0.30917401199147,0.041328282410166214,0.19970751026593112,3375187000000,
-0.3381714083909777,0.05015153135526328,0.19966462016523595,3375192000000,
-0.30170962930835554,0.030800715434650884,0.1998494298054252,3375197000000,
-0.3252052535324662,0.06860577967725068,0.19958729916933496,3375202000000,
-0.18153024730516765,0.04694163975731699,0.19979447396121222,3375209000000,
-0.3501010990387013,0.06329890300360622,0.19957582238949403,3375214000000,
-0.3423174926271303,0.041118861933399795,0.19990888432635037,3375219000000,
-0.2951460537703846,0.05694360175993894,0.1995466610352563,3375224000000,
-0.32151405462518645,0.048519462593638096,0.19964030859175322,3375229000000,
-0.31490169896615033,0.08033455797012162,0.20005766244479015,3375234000000,
-0.3337262655048555,0.028670341314409854,0.19978923056365847,3375239000000,
-0.30551578910571786,0.06504758898427637,0.19988218824488965,3375244000000,
-0.33747839754393566,0.0690416121592746,0.1995261560957764,3375249000000,
-0.3274170276252952,0.053303024934095916,0.1997681903453303,3375254000000,
-0.3517337980828016,0.06310062657076408,0.19948915453029772,3375259000000,
-0.3355869353238688,0.039310769597616584,0.19984590471290797,3375264000000,
-0.3070300819464713,0.09960625229505145,0.19941420087798903,3375269000000,
-0.3043007753567359,0.04893171079613493,0.19984846957924815,3375274000000,
-0.29944907082400235,0.07795852719443433,0.19974390065477587,3375281000000,
-0.33055601291374465,0.04080607765672173,0.20008954513280303,3375286000000,
-0.32462048991865133,0.04094150794281679,0.19980221031735443,3375291000000,
-0.34855421185172863,0.044656175505130374,0.1999435221102405,3375296000000,
-0.3310440118435342,0.06570442014478721,0.1995074081457319,3375301000000,
-0.1412586800179384,0.017473964527622114,0.1995244047995257,3375306000000,
-0.333748000907528,0.0411583749318243,0.19990318277057087,3375311000000,
-0.31213173934488514,0.0719911133027351,0.1998851918109288,3375316000000,
-0.33239463617833853,0.05377889803650593,0.2000626835649783,3375321000000,
-0.360704355665596,0.061260938746977966,0.19956889423246052,3375326000000,
-0.33964340599057086,0.09381764030722356,0.19986525074380748,3375331000000,
-0.296365327775463,0.05649419414773922,0.19976480489868753,3375336000000,
-0.32746314708899016,0.05796691295150648,0.19965627628643265,3375341000000,
-0.3365479015361304,0.05112389279305399,0.19972207890851146,3375346000000,
-0.3403497649562135,0.05101841960860866,0.20001865859955859,3375351000000,
-0.29813357971603976,0.06560903119357969,0.2000065082254302,3375356000000,
-0.3334067221346472,0.03980306361589191,0.19986796458881714,3375361000000,
-0.3219398348458699,0.05707638680792836,0.1994812330074749,3375366000000,
-0.34759799884790626,0.06899549825802012,0.19987970678160444,3375371000000,
-0.33635885745710475,0.07461247747291846,0.19994498473373262,3375376000000,
-0.3494645283426636,0.05902065707013873,0.1995758693453141,3375381000000,
-0.3031801458546792,0.04915051127870241,0.19966121223872263,3375386000000,
-0.3121230051870642,0.04853309886904335,0.200100879565428,3375391000000,
-0.32596841334442467,0.04245585747052712,0.19988739817593346,3375396000000,
-0.3426423282084349,0.039816186760346955,0.19985279756644733,3375401000000,
-0.3542383836564486,0.06916086667015964,0.19986321996395676,3375406000000,
-0.11325046409473757,0.048553028172715174,0.1996745441992195,3375411000000,
-0.3267983159825751,0.061678081033942345,0.19957547983543694,3375416000000,
-0.3342293892642326,0.04585538229631782,0.1996930174852833,3375421000000,
-0.30771887277510357,0.046416234789803966,0.1995975481101677,3375428000000,
-0.32162129373545195,0.04574087542279913,0.1998604545339621,3375433000000,
-0.30285548523501027,0.10608907483323787,0.19992253388076936,3375438000000,
-0.33044465824074426,0.06785551320841467,0.19981788772094217,3375443000000,
-0.3024989826941179,0.05780196149082306,0.1997552262537419,3375448000000,
-0.3054168936415401,0.057687745612721025,0.20009135421038993,3375453000000,
-0.31046737627922694,0.05756657474373926,0.1996848124639523,3375458000000,
-0.302362634976695,0.053620920243850456,0.19968915983503183,3375463000000,
-0.3098753290679038,0.06316366237677246,0.1999731996383148,3375468000000,
-0.3355837366497993,0.08241502893126443,0.1996889840863133,3375473000000,
-0.31756556380129924,0.0672566195622546,0.19962522756281945,3375478000000,
-0.3105668055051164,0.04321102495481775,0.20004239067140264,3375483000000,
-0.32860009566269927,0.03328413704968956,0.1999069408968494,3375488000000,
-0.28695072310495356,0.045460187467400555,0.19971179417237392,3375493000000,
-0.31158429231264917,0.052055420598882136,0.1996464032367618,3375498000000,
-0.3116784488549644,0.06970629755070534,0.1995419336259388,3375503000000,
-0.31033134225707326,0.06033443615454515,0.19949374224598024,3375508000000,
-0.10632465771425657,0.05745850333150132,0.19974398329046986,3375513000000,
-0.2922514855139476,0.0468985341619486,0.19976944619563267,3375518000000,
-0.30728748519708854,0.04746995738824996,0.19996203764549147,3375523000000,
-0.30954939926966146,0.055170462615157845,0.19941713818287185,3375528000000,
-0.3357732178240277,0.04992757022205989,0.19969913077493515,3375533000000,
-0.3000794673174713,0.022105519140635514,0.19974510263367037,3375538000000,
-0.28094304201415365,0.07419330686168778,0.19972565515803065,3375543000000,
-0.3024725975810419,0.043810146088106405,0.19945932521248594,3375548000000,
-0.27884642546331895,0.05507814094495403,0.19987889693809335,3375553000000,
-0.30376158839522266,0.049956412022671884,0.19965249021552903,3375558000000,
-0.2947186157600247,0.06055980417076992,0.19985579835059708,3375563000000,
-0.2918099557115107,0.060302478320250597,0.1996600544608233,3375568000000,
-0.30860437353557435,0.06359838011325682,0.19944558857618458,3375573000000,
-0.2994229517242693,0.03967130120145065,0.19958407596650285,3375578000000,
-0.32848344435638954,0.07238810392012049,0.1994990629568963,3375583000000,
-0.2598007741492399,0.0505051584433544,0.19957412134365454,3375588000000,
-0.2884981421670272,0.048119184394133846,0.19945809982873544,3375593000000,
-0.31122316973951625,0.05546021022846468,0.19945228526607992,3375598000000,
-0.269553026557767,0.04521275294653213,0.19942647908672895,3375603000000,
-0.28105564984503667,0.05514386405712008,0.1995845540221045,3375608000000,
-0.06328227373089335,0.045104224627133996,0.1998700528136506,3375613000000,
-0.305561801064627,0.029187974448699965,0.19989673722739737,3375618000000,
-0.2629218724269261,0.039895949472610805,0.19952573929423154,3375623000000,
-0.2985727820373408,0.01645706731169358,0.19980271550629833,3375628000000,
-0.2895736728021944,0.05889870817389157,0.19920331601096183,3375633000000,
-0.27539235282387814,0.055976258022273795,0.1994637656567177,3375638000000,
-0.2337247506355697,0.0716228561809501,0.19962797224197562,3375646000000,
-0.30255228277804797,0.03888769512611942,0.19966569585838173,3375651000000,
-0.2788717774595142,0.03711701668054796,0.1996872456084561,3375656000000,
-0.24932693147898,0.05223946924103976,0.1996641674848808,3375661000000,
-0.28323142453483174,0.051974906396168516,0.19962626876942818,3375666000000,
-0.24739120135991688,0.06084339151332868,0.1997546021081162,3375671000000,
-0.26617655889972286,0.05002333951009463,0.19987959205751704,3375676000000,
-0.24183367163305877,0.046223540083237126,0.19978700857492393,3375681000000,
-0.244185273200994,0.04463278387230844,0.19980549016009175,3375686000000,
-0.26927849816572574,0.044001601395912894,0.1994213781183248,3375691000000,
-0.26036131670402574,0.038470097086732706,0.19975877489112856,3375696000000,
-0.24525048514224637,0.036071790175613516,0.19981568914243492,3375701000000,
-0.25414438792777555,0.054649342878387935,0.19965631390292765,3375706000000,
-0.2342093922145762,0.04316295955617135,0.1998506144987983,3375711000000,
-0.023466380854762027,0.04877432796425636,0.19959866391057005,3375716000000,
-0.23300406451870037,0.045681625988382296,0.19957790264348574,3375721000000,
-0.2381988634383328,0.04886752304350538,0.199685600679737,3375726000000,
-0.25075564911485543,0.04381920103976091,0.1995955975750611,3375731000000,
-0.22746098907377144,0.06599527570727129,0.19937031547418543,3375736000000,
-0.19816514427370902,0.03942540871401608,0.1994835110422107,3375741000000,
-0.26008060126551413,0.039421826956605684,0.19967275134474408,3375746000000,
-0.2323351859662589,0.031013685488478222,0.19963648980870735,3375751000000,
-0.25795903711647433,0.017815326998587195,0.1994825953545837,3375756000000,
-0.20822110847725914,0.049745235173151464,0.19971168265672234,3375761000000,
-0.19789420608598843,0.018755776207290187,0.19971846175813582,3375766000000,
-0.22784150484347637,0.028410321990665465,0.19967096070630944,3375771000000,
-0.23022121053547118,0.03969087964809385,0.19938428174014397,3375776000000,
-0.23522644519857447,0.018334203830628323,0.19980249875283004,3375781000000,
-0.22534167191500346,0.009165322899308544,0.19969724915881645,3375786000000,
-0.19925016767761128,0.02503423339253894,0.19981408936438919,3375791000000,
-0.24435591528340322,0.024259236485465067,0.1997952624634594,3375796000000,
-0.20029840435443283,0.0446737638600326,0.19937592516333372,3375801000000,
-0.22451934682820163,0.032796690344835386,0.1995652590644521,3375807000000,
-0.22104357887245013,0.0328987398220709,0.1997976795377083,3375812000000,
0.0369648940053169,0.033918467045873334,0.19962768547896803,3375817000000,
-0.22613973631395207,0.03684721926280793,0.20011279404058113,3375822000000,
-0.17598161303095092,0.022668793223071766,0.19961789114632017,3375827000000,
-0.21140528464880767,0.03319411666382722,0.19954337995956598,3375832000000,
-0.20199405945093968,0.053884390049555086,0.1998010457131156,3375837000000,
-0.1954596142774755,0.05484587469581556,0.19960716212007537,3375842000000,
-0.17312195773177186,0.017238733766180774,0.19954071937889298,3375847000000,
-0.19231482565761457,0.03825448861380608,0.19967657118562437,3375852000000,
-0.19893296503720656,0.013082519828538784,0.20009162134177982,3375857000000,
-0.16478019406182937,0.04707295117980281,0.19984006311064786,3375862000000,
-0.15958824826018356,0.005083813934604553,0.19986729131667333,3375869000000,
-0.17111595459604192,0.03348663547306608,0.19959919872441545,3375874000000,
-0.13734419823595573,0.011113179025563882,0.19956738966619555,3375879000000,
-0.13373693707365808,0.029405253384135764,0.19999210762990563,3375884000000,
-0.1448309184324626,0.018418928094397036,0.19923184996352272,3375889000000,
-0.158561151946371,0.03496300518562369,0.19947014295540388,3375894000000,
-0.1459627849020366,0.005247040713665,0.2001412990626079,3375899000000,
-0.1388786567530934,0.03665016668182694,0.19991478926226927,3375904000000,
-0.1798945022607448,0.039723846481559195,0.19975315062606008,3375909000000,
-0.17142118156221545,0.05463518273287278,0.19955734250372043,3375914000000,
0.074059948370619,0.023678386612618237,0.19944221912078922,3375919000000,
-0.15635717396108778,0.010893286421425964,0.19975271705305064,3375924000000,
-0.1361814217827469,0.046769539610272,0.19973721212122458,3375929000000,
-0.1534245352640305,0.014724731056075076,0.19970749090972595,3375934000000,
-0.14471149052575014,0.03295759138214305,0.19962481156813827,3375940000000,
-0.11960010952061034,0.041519893578407005,0.1997452017807527,3375945000000,
-0.11605433328430367,0.016261648265295924,0.19950809854708404,3375950000000,
-0.12036916626149402,-0.008991767513577963,0.19963789660099124,3375955000000,
-0.12400317044474347,0.03941744303139061,0.1998360461283352,3375960000000,
-0.14718804201598779,0.01393001361149349,0.19960617565724803,3375965000000,
-0.0925102657030469,0.01461417956138103,0.19969361428371252,3375970000000,
-0.07903429025860964,0.048488705379729484,0.19945732368343658,3375975000000,
-0.1309310841280782,0.04085080820363256,0.19962007903004436,3375980000000,
-0.10675569354347006,0.029574968073003017,0.1998355719404919,3375985000000,
-0.09053581950538861,-0.014315543305667883,0.19979972529334067,3375990000000,
-0.0932350144029575,0.024894066705544008,0.1999232359945601,3375995000000,
-0.0808564641094123,-0.006871042938624172,0.20004707157944068,3376000000000,
-0.08616696456502475,0.0024344645828331436,0.2000440950036102,3376005000000,
-0.07528836882048418,0.03279604324998207,0.19987614215725713,3376010000000,
-0.059589955877523984,0.023274851659685545,0.1997778414192313,3376015000000,
0.13848722877137043,0.009764534690395505,0.19988173706897536,3376020000000,
-0.09613105386467599,0.016726317120660417,0.20019756064211205,3376025000000,
-0.0669356533756185,-0.002477580078496501,0.1995622227707376,3376030000000,
-0.07132926895968646,0.007448576159846726,0.19988503725540238,3376035000000,
-0.17135933264089123,-0.05645738955520155,0.1999940622926396,3376040000000,
-0.07170514683847026,0.001882204216271277,0.20040695620156465,3376045000000,
-0.05609864808893697,0.03322837067767794,0.20050507762482264,3376050000000,
-0.0791768786466255,-0.0003480138856097534,0.20091297033430308,3376055000000,
-0.062360900007608355,0.010388120129166702,0.20066702694261127,3376060000000,
-0.03822642837677392,-0.0021845448518060025,0.20151005988119663,3376065000000,
-0.04818405908564691,0.012824623456202881,0.2014227898384676,3376070000000,
-0.027376186444383985,0.009717573276747498,0.20128478483109014,3376075000000,
-0.04529752877741578,0.007478760550834663,0.2008676580493638,3376080000000,
-0.03454883103921887,0.03721059593837914,0.20065420896255742,3376085000000,
-0.024386250907913135,0.02743701750731157,0.20067549318484604,3376090000000,
-0.03389035253386105,0.02687561723613459,0.20060389205066317,3376095000000,
0.02520002057661002,-0.015465842910662582,0.19994559757307195,3376100000000,
-0.018427240596951566,0.014316338726330837,0.19959011144249675,3376105000000,
-0.0391644795072868,-0.01528005150881522,0.19937404486988494,3376110000000,
-0.03704258719555377,0.03276370539361477,0.19932578709232965,3376115000000,
-0.003146094814347477,-0.02003854051799641,0.19921624979608946,3376120000000,
0.20449814108903097,0.013224581040822457,0.19916182836268181,3376125000000,
0.0025461493977139192,0.023768529326646047,0.1993355680459186,3376130000000,
0.016086116524642192,0.027343819565297273,0.1993465910308287,3376135000000,
0.032404829519604876,0.024634650364358107,0.19919970125495018,3376140000000,
0.04487138435933724,0.01791383272311571,0.19963535807850435,3376145000000,
0.014576092311854201,0.004600125282597106,0.19948201447915334,3376150000000,
0.0212027172908832,-0.0013576203712205165,0.19970159295617787,3376155000000,
0.0320103311616706,0.02535342692418158,0.19956500833610655,3376160000000,
-0.009674409002138732,0.012424065423787385,0.20026184591754678,3376165000000,
0.028282971836161727,0.014512496059925235,0.2003961912384389,3376170000000,
0.029735939822842346,-0.01449009597723298,0.200669219541618,3376175000000,
0.03761186670355446,0.006306827640844493,0.20065154646393035,3376180000000,
0.05109936305606882,-0.002897891350556174,0.20085782598479343,3376185000000,
0.030791640380930824,0.005585816821896845,0.2008295079904432,3376190000000,
0.04084820868867184,0.02116556959951651,0.20073940378945918,3376195000000,
0.05614067550362923,0.005060270446194978,0.20034543813121045,3376200000000,
0.02397367873788128,0.01575003351338149,0.2006042232036304,3376205000000,
0.06240349261762106,0.006814301903530161,0.20048093189419755,3376210000000,
0.04100233911260936,-0.019357125494651888,0.2001238959730812,3376215000000,
0.043537456211620675,-0.035129592695238424,0.19956089976253452,3376220000000,
0.2546974010921295,-0.01904428330030379,0.19973837521205756,3376225000000,
0.06978581084496331,-0.022520698811963454,0.19920471939661824,3376230000000,
0.06521124769107646,-0.004254420152537528,0.19927925305636077,3376235000000,
0.09815089637142917,0.01438664999286468,0.19928867199001088,3376240000000,
0.08133149303363486,0.03665469570067106,0.19948143096512325,3376245000000,
0.06897784904639287,0.02609168108233694,0.19917708572751008,3376250000000,
0.16263146505760823,0.06380273223622164,0.19960667869287657,3376255000000,
0.16040996351303557,0.05876576852384412,0.19964697039791446,3376260000000,
0.1385579404186561,0.004563787978857287,0.20031592537962323,3376265000000,
0.14576483513005306,0.03410606415840123,0.19996444044759526,3376270000000,
0.14705181091524652,0.06290377380408377,0.2004017626883889,3376275000000,
0.11092681827823297,0.05249914037913751,0.20086045073570105,3376280000000,
0.16694390453712443,0.0398105662565261,0.20023545055865097,3376285000000,
0.13319203056696924,0.02946097628419025,0.2003978896479603,3376290000000,
0.13845628172468435,0.0223202171694045,0.2004087400898176,3376295000000,
0.13842064145702423,0.0039826631572814665,0.20015476032413887,3376300000000,
0.13977770598322056,0.011588188846161935,0.2001826044580144,3376305000000,
0.1179183868125663,0.0030480094414223613,0.20001810443592025,3376310000000,
0.13338910137932927,-0.012285165760522068,0.19998096144948707,3376315000000,
0.11492446515351297,-0.02222565989336555,0.19985717457461244,3376320000000,
0.3077896253341794,-0.007694657264233179,0.19988975781357637,3376325000000,
0.1788124862956457,-0.008174913547382277,0.1995226340132336,3376330000000,
0.12218314622905917,0.002163987314711724,0.19939566731443817,3376335000000,
0.154182125450251,0.006962603660810925,0.19907161174725077,3376340000000,
0.10513306670483542,-0.0116120210897479,0.1993465355075478,3376345000000,
0.1256624245650206,0.012684020962813434,0.1990941439180338,3376350000000,
0.12123122293275951,-0.0005119365357158651,0.1989135213554966,3376355000000,
0.11208282743678154,-0.01476562721891412,0.1993986566508721,3376360000000,
0.10312943679884559,-0.03225283788627281,0.19921262525835004,3376365000000,
0.15836190160379993,-0.026538855926943397,0.19902266014901632,3376370000000,
0.12116361339230543,0.012621876372445648,0.1994159087471866,3376375000000,
0.07547677738976022,-0.07629006174856,0.19966586384116802,3376380000000,
0.09953447297751725,-0.022448236455093064,0.19957218790528425,3376385000000,
0.10029852330654852,-0.023007069735268046,0.19964160322373023,3376390000000,
0.08606863873227248,-0.025473853348664578,0.19992902275233995,3376395000000,
0.06865984694543942,-0.07878825443769522,0.20040972297102774,3376400000000,
0.18660168453795709,-0.02222908189185524,0.2002937374874755,3376405000000,
0.179055269002434,-0.013122711269135263,0.1999401818331214,3376410000000,
0.1985601328118915,-0.010257417148950175,0.19969393869756247,3376415000000,
0.18410804770359473,-0.0005286089454731996,0.19891160159950783,3376420000000,
0.19089784507041985,-0.01364855981847596,0.1979484323890268,3376425000000,
0.28778372007799463,-0.048292696742876125,0.1977046864501859,3376430000000,
0.14754860781515705,-0.026977238930372894,0.19730162344188415,3376435000000,
0.16054195746589034,-0.050537498768216005,0.19736241551039796,3376440000000,
0.14602942581427183,-0.03609935093882015,0.1972704445981535,3376445000000,
0.1986556252342532,-0.023203952790655395,0.1977145849106425,3376450000000,
0.16582741824072147,-0.010354835782218564,0.197987226999447,3376455000000,
0.17786391782896058,0.01843326911561633,0.1982796331204014,3376460000000,
0.1978862030686481,0.0017589352734641989,0.198372283903221,3376465000000,
0.21783875507913586,0.0242709486495872,0.19892066740651596,3376470000000,
0.22998009893263274,0.021484148438187918,0.1993165809205456,3376475000000,
0.2254315821663945,-0.0030077134404918136,0.1999908726030163,3376480000000,
0.2432450346938687,0.006445501166208189,0.2001987215662659,3376485000000,
0.23721557943635718,0.04498947075794703,0.2006427261306369,3376490000000,
0.41492801062145457,0.026408244858257265,0.20101514345828495,3376495000000,
0.23293229340787378,-0.005022168394482933,0.20122919801531297,3376500000000,
0.21309508370166463,-0.019167232033380513,0.20174633063786274,3376505000000,
0.201612089151973,-0.01610440017378452,0.2019447232847774,3376510000000,
0.20706641048788096,-0.003389494332522287,0.202410878109311,3376515000000,
0.24349335111987305,-0.024120839354712497,0.20208905959019635,3376520000000,
0.30020182399441847,-0.23212946798450512,0.20282187586459416,3376525000000,
0.2984864133494694,-0.05138642072333729,0.20482784231444381,3376530000000,
0.30232891135898443,0.020439875962499233,0.20538441776787017,3376535000000,
0.2849730229917634,0.0252915819351476,0.20845162343577844,3376540000000,
0.24792245203707897,0.03349311969397609,0.21113841484231927,3376545000000,
0.25588804671015497,0.0073228963582905645,0.21341127188596698,3376550000000,
0.14762576819541667,0.17258540002408224,0.21543854691306596,3376555000000,
-0.024001376079795397,0.3691274710279933,0.2154370839861259,3376560000000,
0.24524741218910845,-0.051061415216648975,0.21498491396261885,3376565000000,
0.2821047744109397,-0.0800141081706666,0.21335589201099328,3376570000000,
0.23389364380027844,-0.048826085669731394,0.21184532807321438,3376575000000,
0.2296484603744311,-0.07228186104950343,0.2106395130734657,3376580000000,
0.18272858146017126,-0.04310649725788547,0.20899807129814363,3376585000000,
0.2534211201912917,-0.029348219273265606,0.20777708237286516,3376590000000,
0.24158727357555146,0.009583639659928284,0.2067029366471913,3376595000000,
0.4382428240983469,-0.0005668116189794783,0.20592059760718986,3376600000000,
0.2269372465264158,0.005386091171573324,0.20512670389454096,3376605000000,
0.2436133521585708,-0.032216661382470646,0.20515130306522755,3376610000000,
0.24508643610168807,0.002699775499974943,0.2033722617307649,3376615000000,
0.260376952007122,-0.009169698530355213,0.20278450191310662,3376620000000,
0.2569622246538368,0.0003410451836043382,0.20225134120383054,3376625000000,
0.25076954766060244,-0.027114168048343833,0.20189868025763247,3376630000000,
0.23537537929594465,-0.006223253487622624,0.2017249510141029,3376635000000,
0.22134699257443144,-0.022943219137556845,0.2015629814141479,3376640000000,
0.2570160795728154,0.01910067074815488,0.2012997427522199,3376645000000,
0.23880029765832358,0.003140537696696139,0.20121046943765453,3376650000000,
0.2312294772411007,-0.01090711818525111,0.20131117028729978,3376655000000,
0.24001918983245973,-0.00922301483440735,0.20150963513695955,3376660000000,
0.252012065479666,-0.001434419823285217,0.20137441544867624,3376665000000,
0.24961057185721086,-0.02202443754910468,0.2010889158128186,3376670000000,
0.265621722731672,-7.406431247462299e-05,0.20087373966309302,3376675000000,
0.2716376577894017,-0.007278310071904484,0.2011575064919629,3376680000000,
0.27579319921263107,-0.0052651302637015535,0.2009096976808118,3376685000000,
0.2469071714354428,-0.0037212061746157567,0.20147930190120122,3376690000000,
0.2784809675980859,0.003948791890937909,0.20072297641845063,3376695000000,
0.4556992299291815,-0.012945703405076664,0.20067581095964449,3376700000000,
0.31123905975720223,-0.0311825941861976,0.2000706963680781,3376705000000,
0.27715486127183503,-0.03324517211850712,0.1996755434155643,3376710000000,
0.2649430875883781,-0.020245597626070123,0.19889941638998798,3376715000000,
0.2656275673691644,0.014843913991517214,0.19868608130210144,3376720000000,
0.28409606216751193,-0.01391021596703313,0.19743429530743004,3376725000000,
0.2920529513463642,-0.010438137413476337,0.19702231053721167,3376730000000,
0.318323598150875,0.006374708496227859,0.19649879961086614,3376735000000,
0.27964424640596464,-0.0051748860281055015,0.19682867953746097,3376740000000,
0.2874045392261758,0.0009353439728990747,0.196522381396802,3376745000000,
0.28219215676514325,-0.010986730115575747,0.19725353553196184,3376750000000,
0.28900927148971944,-0.0063672878753597145,0.19755283385358813,3376756000000,
0.2940601375367053,0.004372190074619345,0.19767148893931014,3376761000000,
0.27766583732376726,-0.016550089148206184,0.1983097196051897,3376766000000,
0.28182331823355944,0.012212778177871572,0.19927592760750662,3376771000000,
0.28947867688675527,-0.00976943552058598,0.19986085275871984,3376776000000,
0.2965639801764575,0.02266914909502484,0.19961522282843702,3376781000000,
0.29440100991765733,-0.009240891108053853,0.20006713586832311,3376786000000,
0.29082904201345094,0.0023540842682515193,0.20040210132457448,3376791000000,
0.2980682295816108,-0.018854425667267236,0.20001448718002676,3376796000000,
0.42758360604902096,-0.004592588629049485,0.2003002787803103,3376801000000,
0.31996618282358147,0.005094526742521597,0.20026471271736604,3376806000000,
0.3211758260638361,0.012423039282311529,0.20040390815496906,3376811000000,
0.2796381741265627,0.015836148997587878,0.19945974001654018,3376816000000,
0.30804525796442445,0.02512862726947699,0.19977310546747412,3376821000000,
0.28828665901401734,0.018297216418216775,0.1994887167885098,3376826000000,
0.31679699487881274,0.02637090858459611,0.19897932888586511,3376832000000,
0.30043773388722605,-0.0009542466094707956,0.19911331339212995,3376837000000,
0.3135788975813162,0.02067311608781798,0.1990602671006026,3376842000000,
0.3293220252269857,0.027890080233037635,0.19926173305381215,3376847000000,
0.30992819001948263,0.02182374798724796,0.1993068208576159,3376852000000,
0.266335494386191,0.037304849623273836,0.19926191251649672,3376857000000,
0.3004708677648863,0.017330620065892942,0.19938240241865213,3376862000000,
0.28435450777331645,-0.011031281414525671,0.19988974008778618,3376867000000,
0.31615285307705565,-0.033935937882124914,0.20000190535756043,3376872000000,
0.2853898968384295,-0.03158943076424282,0.19996542992520575,3376877000000,
0.3057467960402752,-0.030610597437196033,0.2004111223340789,3376882000000,
0.3268461597445895,0.03692391852513666,0.20064837794744575,3376887000000,
0.2862629047663996,0.03228271066566,0.20102390189156327,3376892000000,
0.30296282681621933,0.02867409820540176,0.20050118530783997,3376897000000,
0.3383092667812434,0.01890906755917891,0.200344871838674,3376902000000,
0.4010749489210561,0.02855653357618846,0.20031947084608268,3376910000000,
0.3194719706534746,0.02052835602456673,0.2001781239491676,3376915000000,
0.30556531684590543,0.01764304060000885,0.2000872755701162,3376920000000,
0.3059261559826339,-0.003459474233398655,0.1996401555741621,3376925000000,
0.3048397688764341,-0.009662706112994805,0.199263228695789,3376930000000,
0.3202918811408272,0.03537822418648914,0.19966433658041835,3376935000000,
0.28949999907899404,0.02321194999080948,0.19891690263516773,3376940000000,
0.2717139282359377,-0.00029265501828550436,0.19934570685655126,3376945000000,
0.2724132329085149,0.06852753487906153,0.20013715660369966,3376950000000,
0.27880316678893663,0.03389063637742054,0.20049545676243233,3376955000000,
0.2881212645638211,0.003725497666524521,0.20224758044161711,3376960000000,
0.30156524458011297,0.004396903278664717,0.20426557298764308,3376965000000,
0.279501331609476,0.02557885795190653,0.20594798185294974,3376970000000,
0.32283869510602037,0.014187255873649229,0.20712846094522883,3376975000000,
0.31522935029427784,0.024297759033482,0.20945969731047856,3376980000000,
0.29572695156880724,0.0377079351567206,0.21048494964660125,3376985000000,
0.3107841154237542,0.030817029408681064,0.21182111011868984,3376990000000,
0.39582246590730125,-0.01804863697400065,0.2121985237516456,3376995000000,
0.308840128151724,0.07527942063251539,0.21139077174159449,3377000000000,
0.47439788805037225,0.01527474626058519,0.21045962993006484,3377005000000,
0.3480788465194899,-0.002331493296721405,0.20895890340760268,3377010000000,
0.2890404793417523,0.03748400592911724,0.20795156808316745,3377015000000,
0.2703017563189311,0.004999883562122678,0.20718428092869443,3377020000000,
0.33881950702830865,0.03616898463442003,0.20624968639756974,3377025000000,
0.3071387630459882,0.032665972296875435,0.20567582950335092,3377030000000,
0.31862805257174914,0.033056742248476996,0.2048244552882489,3377035000000,
0.3216175364807582,0.025914766339796887,0.20498643302897024,3377040000000,
0.3073204047262757,0.08087600666854064,0.20444112154278887,3377045000000,
0.3405397912875799,0.00849867057948472,0.20457249678527561,3377050000000,
0.28205287872103774,0.030268565741640788,0.2044118509108669,3377055000000,
0.3164248787854718,0.039823366546117095,0.2042701510351705,3377060000000,
0.3395351516560533,0.04258922084446456,0.20439677515876234,3377065000000,
0.30711685753689916,0.015131376386736714,0.20445058473930225,3377070000000,
0.307219766197074,0.03732669425613158,0.2041301488688878,3377075000000,
0.3081281962277656,0.04528711127591506,0.20473458047322543,3377080000000,
0.30514455361266996,0.029333607669255128,0.20451992756186876,3377085000000,
0.30031391154034504,0.041003199604556055,0.2047893787219812,3377090000000,
0.2878395281118353,0.03449520038229456,0.20436979705092798,3377095000000,
0.265595699562165,0.02326148532097913,0.20477719300275762,3377100000000,
0.29051159768258716,0.06419147762764671,0.2047396846207029,3377105000000,
0.527161833496776,0.009680490439380952,0.20456362858603538,3377110000000,
0.3296373636366503,0.007925227931004326,0.20388482966870622,3377115000000,
0.3048526012827753,0.024434337592619294,0.203147379855896,3377120000000,
0.30580225253515014,0.02600479180487832,0.20298717916233833,3377125000000,
0.3159104460559387,0.03831889251445046,0.20136573165847044,3377132000000,
0.30056843736410654,0.016244190447750335,0.20057702012281636,3377137000000,
0.2869177523323947,0.0485054848426786,0.2000557870140044,3377142000000,
0.2851508169695552,0.023810926810850796,0.19906191191576392,3377147000000,
0.29755925342326583,0.009629607261911284,0.19814384402963317,3377152000000,
0.28252736907795156,0.040432132908279,0.1976230366391769,3377157000000,
0.2746907262396768,0.01050356316681235,0.19733326198136952,3377162000000,
0.3145861418242025,0.0481198622056866,0.19736337473719132,3377167000000,
0.29788607409421647,-0.007777657748176275,0.19749700845073642,3377172000000,
0.2872348583005523,0.036011118212488515,0.19740931864101302,3377177000000,
0.313227175667068,0.02297573001430191,0.19786219326378762,3377182000000,
0.32739304196250163,0.01796705720934663,0.19868586473214017,3377187000000,
0.32546232347745535,0.029304114473177788,0.19870828802359247,3377192000000,
0.30153603654686256,0.029607169384161434,0.1999801627714103,3377197000000,
0.3009661861200485,0.016762694918301915,0.2004208758927387,3377202000000,
0.3155235242204053,0.030645004954066506,0.20056100605336355,3377207000000,
0.42159414831948644,0.032238058599466185,0.2012146313256955,3377212000000,
0.29052250605353935,0.021992826446037603,0.20165891654028598,3377217000000,
0.303459086704874,-0.003426964059173216,0.20182755906907926,3377222000000,
0.27411300729859867,0.007651217086379737,0.20151042922007473,3377227000000,
0.30282991971256074,0.027446852140775278,0.20187495607106484,3377232000000,
0.31673320125509513,0.031022800778819762,0.2016392401183875,3377237000000,
0.3273492267699431,0.006523069810731164,0.2014015396933979,3377242000000,
0.25829170056950423,0.01777747588306907,0.20111148055135816,3377247000000,
0.27330346106056497,0.0016196352985484892,0.20062716215029466,3377252000000,
0.2815238862181283,0.0324755580488776,0.20037276017564734,3377257000000,
0.28333724923214887,0.00596770247193857,0.1997121391818515,3377262000000,
0.2639994946632478,0.01819482694547673,0.1998150068324942,3377267000000,
0.25103487292613036,0.018097176085407233,0.1991534473832471,3377275000000,
0.28352535803033146,0.02550852211890883,0.1994627763256409,3377280000000,
0.29134229452889226,0.021571304601709803,0.19916962363861376,3377285000000,
0.2737494010775756,0.025509102145160868,0.19888189249605653,3377290000000,
0.2580886520813044,0.027226479553656344,0.19966602044305734,3377295000000,
0.2833550941563401,0.02153543004794524,0.19917097717958243,3377300000000,
0.2979121021931252,0.0409096294920941,0.1993409412341819,3377305000000,
0.27977391475001023,0.013852523479108817,0.19954499776691315,3377310000000,
0.4761491078491106,0.022571813150442814,0.19943903228696638,3377315000000,
0.2576231742824906,0.006892335193006921,0.19982879165118905,3377320000000,
0.27826955656470914,0.019381361065283546,0.19977803939531413,3377325000000,
0.28799139446136285,0.02148531232917194,0.20049077084113479,3377330000000,
0.2774476212817909,0.02699209648811427,0.2002035826509189,3377335000000,
0.23909733193298172,0.03561342625653466,0.2004559663706439,3377340000000,
0.23532844239628198,0.01849745707207468,0.20064662891234458,3377346000000,
0.2521087453077359,0.018223620914841202,0.20058005091863415,3377351000000,
0.26974291436585696,0.05010824409498056,0.2002713794747014,3377356000000,
0.23507557507086618,0.00969484537258107,0.20034593653739563,3377361000000,
0.2628304248314298,0.0045953511378815665,0.20031452720214207,3377366000000,
0.23529620307251345,0.020253451616262016,0.20032830075035601,3377371000000,
0.26971170401669287,-0.015102911636835905,0.2000439923081159,3377376000000,
0.24230928173596403,0.03265364370452605,0.20015965523964907,3377381000000,
0.2242979043907347,0.025307290231518988,0.19960729836999028,3377386000000,
0.2441418850653021,0.016224638850364768,0.19987142834285448,3377391000000,
0.22428104453536218,0.004593427514394734,0.19986774509473162,3377396000000,
0.26071064423623735,0.004744684286642027,0.1997798710810139,3377401000000,
0.2372674278024376,0.004655286393025017,0.19959465392094466,3377406000000,
0.23191427835933037,0.006325543200793888,0.19973011629415166,3377411000000,
0.45096538718934776,0.012727563558660344,0.19965743081698434,3377416000000,
0.2533417262670051,0.016358566981037537,0.20017205374581837,3377422000000,
0.2142479188470179,0.023446190590383113,0.20032893988622966,3377427000000,
0.2434466151867382,0.01153444786775552,0.1998230012580148,3377432000000,
0.23928904845254867,0.03610938286036034,0.1997893601426534,3377437000000,
0.22959247590714021,0.02917118907474516,0.199976508170944,3377442000000,
0.22825641499187177,0.009227426387779545,0.1999404488208281,3377447000000,
0.23738687605795408,-0.0008218919395330728,0.20034020060923685,3377452000000,
0.2476161657682335,0.03609814226560833,0.1999978866105923,3377457000000,
0.2355965630265751,0.027544669987922783,0.19999336680481186,3377462000000,
0.2193052350747994,0.021196539588002578,0.200346606093581,3377467000000,
0.22089436633562476,0.018040155849983003,0.20012018527282266,3377472000000,
0.22216635903969192,0.015984044887730336,0.1999583978553881,3377477000000,
0.20979235437773697,-0.000612935644837288,0.20018430037238466,3377482000000,
0.2239759672698479,0.017580953975714846,0.20025534398220543,3377487000000,
0.24319192407208245,0.0008583047740185392,0.19972600134081134,3377492000000,
0.19175927816013677,0.012522418433978898,0.19957855390387025,3377497000000,
0.1981486168492021,0.019292476893819785,0.20011924500066283,3377502000000,
