acc_x, acc_y, angular_z, stamp, 
-2.5143054376195755,3.600349809972249,-0.5041261841811814,3300950000000,
-13.629868463497894,-7.611699202701876,-0.49983362128797176,3300955000000,
-1.9238351003525043,1.82902515023098,-0.498449310116369,3300961000000,
-16.93266135584319,-12.163742405135405,-0.49469408213778365,3300966000000,
-2.3005081678035237,3.859583475839233,-0.492948373267798,3300971000000,
-2.2429835982305133,-1.1884235957615694,-0.49203972427342746,3300976000000,
-18.734086033159873,-8.317538670740186,-0.48653570321458456,3300981000000,
-1.8526473829793082,-0.26209883597364014,-0.4856884353095211,3300986000000,
-18.689697141888644,-11.13727307695307,-0.4811383289002215,3300991000000,
-1.897195265781778,2.134920960503201,-0.4793804803720055,3300996000000,
-2.3862179855063452,-1.5462175510539522,-0.47858474290598296,3301001000000,
-19.77872922864546,-9.031738298978748,-0.472911841183496,3301006000000,
-2.0701678434463373,-0.8550291722690226,-0.4717172193321798,3301014000000,
-19.672629863386305,-9.334075015856094,-0.4661152538413984,3301019000000,
-1.8440650605287376,-0.15456978502541407,-0.4652918705267873,3301024000000,
-2.826308754507553,-1.8308750497930801,-0.46415562671703114,3301029000000,
-20.517857281328183,-8.961092765329331,-0.4588001894714815,3301034000000,
-1.9526574377798076,-0.9775483601151334,-0.45750113611679466,3301039000000,
-20.413883175331335,-16.05039850923385,-0.45354720150630834,3301044000000,
-2.51606090779463,5.306060476727528,-0.4506889290122317,3301049000000,
-2.167682343475173,-1.2702491782273428,-0.4503715814713763,3301054000000,
-2.8784237460931816,-1.9099748784989434,-0.44991512882275675,3301059000000,
-14.481579689734218,-6.558354628850323,-0.44299961454451986,3301064000000,
-2.1234387907748733,-1.4366025600577117,-0.44248242024524437,3301069000000,
-17.832991896516354,-10.932858706096312,-0.4374710967507695,3301074000000,
-1.8556745955901923,3.0839572682414493,-0.43588037523313605,3301079000000,
-2.225292823120405,-1.269297432548194,-0.43457357088674703,3301085000000,
-16.80762376322226,-8.369649341146324,-0.42927044064979014,3301091000000,
-2.1682923862152523,-0.7075557448732489,-0.4287075169319889,3301096000000,
-2.9791717186967537,-1.8734692984574104,-0.4279135273203793,3301101000000,
-22.76650561137942,-11.303408884727773,-0.4213474467546681,3301106000000,
-1.5815831526799324,-0.3560659750305931,-0.42042825178671644,3301111000000,
-2.754584254002785,-1.9915863640223574,-0.4193729942627378,3301116000000,
-24.573959067914018,-14.538993676187992,-0.41378610569186947,3301121000000,
-0.8055105508967494,1.9124674271114417,-0.4122728954570943,3301126000000,
-2.359065227198138,-1.7645099093957954,-0.41158425719590397,3301131000000,
-3.419093312157337,-2.0897907000899383,-0.41057781652303615,3301136000000,
-24.783015337907564,-12.461581698037877,-0.4037099925239674,3301144000000,
-1.7731808919879004,-1.0915800051200906,-0.4027943955277767,3301149000000,
-2.854393225539419,-2.1521832887954755,-0.40184748969425804,3301154000000,
-26.60503098488363,-13.800869073897681,-0.3947155752996016,3301159000000,
-0.7145209550411304,0.18641125812850956,-0.3941100926299099,3301164000000,
-2.5183965665920267,-2.098432845224757,-0.39362491822983153,3301169000000,
-3.5962017305765444,-2.162589416913924,-0.3925378873843306,3301174000000,
-25.64290353657943,-13.29028863199872,-0.3854417631505496,3301179000000,
-1.1736358886624767,-0.5950332501203067,-0.3850484883995298,3301184000000,
-2.2038279259774933,-2.087675587884804,-0.3846605391684005,3301189000000,
-3.7567961500395732,-2.239347405734649,-0.38287067265810215,3301194000000,
-26.697356672613605,-13.706274934681105,-0.3759933107826649,3301199000000,
-0.9514140268595572,-0.8580762537683702,-0.37573370660817,3301204000000,
-2.8872122682520955,-2.1646876584449903,-0.3749163347508293,3301209000000,
-3.870026064525369,-2.2580396644099894,-0.37317937576538596,3301214000000,
-35.5563113043123,-16.794803639606,-0.365322771413939,3301219000000,
1.3007652822067852,-1.458984086513569,-0.3664589403017388,3301224000000,
-2.519222649418036,-2.1625420628506737,-0.36535705247838457,3301229000000,
-3.741806158093043,-2.166855640828074,-0.36455738558036094,3301234000000,
-24.179190939292898,-13.487934645915617,-0.3568568174365879,3301240000000,
-0.2886620333986965,0.1275334617591269,-0.35671418608444855,3301245000000,
-2.5384036060410895,-2.057120284734831,-0.3559537432042946,3301250000000,
-3.012272211122815,-2.241406928232791,-0.35492231324168116,3301255000000,
-28.07517708196171,-25.188736681881778,-0.3497975111611299,3301260000000,
-2.389828825739466,8.55381192608495,-0.34677099873048134,3301265000000,
-1.7364375036295912,-1.9523501409452977,-0.3463788478650843,3301270000000,
-3.076697885696613,-2.2766429137412723,-0.3458682627774774,3301275000000,
-3.8044365238261886,-2.3619753630977813,-0.34423825952602,3301280000000,
-22.030953440059044,-11.845684656046553,-0.3362925137087814,3301285000000,
0.5668293878174392,-1.2286938260174218,-0.3368776649090298,3301290000000,
-2.640667157606246,-2.2409737054903696,-0.3358655734715806,3301295000000,
-3.6167926402507353,-2.302463453487748,-0.3348962516021132,3301300000000,
-4.2567849346612325,-2.5727659547547677,-0.3332363549438016,3301305000000,
-26.05805122605433,-15.325533414715121,-0.32711135713239786,3301310000000,
-1.8052667370617368,-1.1531776568706347,-0.32651035377402204,3301315000000,
-3.13926552918607,-2.25529028054434,-0.3251880248626393,3301320000000,
-3.2993299905066618,-2.5171943118797118,-0.3243257136246685,3301325000000,
-38.355176004294904,-25.228097510841796,-0.31785657480099366,3301330000000,
0.6358272888625963,2.784795603884333,-0.31676925982561627,3301335000000,
-2.118276853814582,-2.249512912014781,-0.3159213562899761,3301340000000,
-3.4201314592045797,-2.3890091039554107,-0.31495591682546353,3301345000000,
-4.091977545147858,-2.5653617997528975,-0.3133138543902018,3301350000000,
-32.380235697219184,-21.827988216838047,-0.30585141224039886,3301355000000,
1.7208795773970487,3.135043469447794,-0.30618944486213134,3301360000000,
-1.8322774178665764,-2.5358012401183765,-0.30562713225833166,3301365000000,
-3.6283402439683354,-2.268194843978004,-0.3042400993230513,3301370000000,
-4.162367684972416,-2.5229671386010417,-0.3032124421779919,3301375000000,
-31.280439860268114,-29.255769413583636,-0.29834974086201116,3301380000000,
-1.7310109700889185,9.644476035744075,-0.2947722793319889,3301385000000,
-0.8183069779839779,-2.2409354484889468,-0.29493674520997815,3301391000000,
-3.0414975105519346,-2.459939044513453,-0.294028703867711,3301396000000,
-4.10306785517366,-2.6215713228882147,-0.2921809244753774,3301401000000,
-28.327103620220512,-19.80887466334808,-0.2845286702406732,3301406000000,
1.3803542506512214,4.648031052121089,-0.2842569248985662,3301411000000,
-1.4084470422018618,-2.111935600207757,-0.28390288895303506,3301416000000,
-3.3035366360738827,-2.4281710215101415,-0.28272954445447623,3301421000000,
-3.0304130784805694,-2.5799386569823644,-0.28226302007746373,3301426000000,
-4.404402921215274,-2.9541913255640724,-0.28057439102074855,3301431000000,
-31.770635652843307,-18.77022905332651,-0.2731305911746843,3301436000000,
0.6458670948663346,-1.303673809615994,-0.27350663332489933,3301441000000,
-2.8216581533968963,-2.475926601929616,-0.27261240194360464,3301446000000,
-3.6903580075698996,-2.5284186966716176,-0.27149831743201375,3301451000000,
-4.2654374110283655,-2.821889886392246,-0.26982540936688343,3301456000000,
-32.101957270800696,-21.843458001869532,-0.26260407865628094,3301461000000,
2.546385054341221,1.9209617855072285,-0.2636360438909833,3301468000000,
-2.3830810895981056,-2.090829111015008,-0.26207462860416586,3301473000000,
-3.75246801698813,-2.5893795095478986,-0.26135419840786894,3301478000000,
-4.283069461123175,-2.9037063681495665,-0.25972386421486415,3301483000000,
-34.17895239174147,-25.266853635238665,-0.25248165131711453,3301488000000,
2.5666242038487086,4.054301899487722,-0.25289039017728354,3301493000000,
-1.7047049557894847,-2.484774296499208,-0.2524977654591991,3301498000000,
-3.5337804706868634,-2.5499534787244476,-0.251201759438718,3301503000000,
-4.015721199711485,-2.716195533987052,-0.24956090024670227,3301508000000,
-4.434972075933362,-3.1018963112553393,-0.24888431005907158,3301513000000,
-30.345596664864317,-18.29220169004547,-0.23955622464016005,3301518000000,
3.2410698062203087,-0.4560272551461555,-0.24157606037424675,3301523000000,
-1.3748983058537338,-2.613864003830552,-0.24125310876380154,3301528000000,
-3.551111863095637,-2.592977707101145,-0.24013704802832953,3301533000000,
-4.179647038115267,-2.8205700470615214,-0.23891211099379175,3301538000000,
-4.60408330035725,-3.2386558495614475,-0.23734377390988773,3301543000000,
-32.98750443191642,-20.36655182957332,-0.2297502371272375,3301548000000,
2.3472454664802367,-1.2996228442065212,-0.23088142756478053,3301553000000,
-2.5957389465697944,-2.5895547423444043,-0.22999477034764856,3301558000000,
-2.5378138207226733,-2.598315192127721,-0.22903642497208304,3301563000000,
-4.145951162839954,-2.9601265715704717,-0.22786862752945522,3301568000000,
-4.699204192883772,-3.3298347615968216,-0.22644098755646613,3301573000000,
-24.744847749069407,-17.249120568714943,-0.22092142359838363,3301578000000,
-1.233819165058702,-1.4202215953554553,-0.22020889111762615,3301583000000,
-3.1434177878670577,-2.543138088563749,-0.21874063086685894,3301588000000,
-3.329533813609133,-2.7854498701962185,-0.2183395422325883,3301593000000,
-3.469017764732219,-3.151343826137279,-0.21708549891418186,3301598000000,
-34.91036908933895,-27.478209325737303,-0.2102351453526305,3301603000000,
2.383627906246396,4.711728777554551,-0.21019446608342848,3301608000000,
-1.8211640822455746,-2.4774711263083264,-0.2102683224791234,3301613000000,
-3.4634945568529805,-2.6332485584034835,-0.20879811567676423,3301618000000,
-3.9203729792000415,-2.855203888282371,-0.2078262381603091,3301623000000,
-3.5510095055137363,-3.2475833336644175,-0.20647078011202372,3301628000000,
-35.19658293456234,-28.564365781602266,-0.20028524490776056,3301633000000,
2.6926461619651056,5.173227517826688,-0.20009979538934777,3301638000000,
-1.7299793756845074,-2.6884506352925595,-0.20003586095003711,3301643000000,
-3.5957118189576582,-2.6473388669113156,-0.19860939739730477,3301648000000,
-3.979542585902135,-2.936620870811749,-0.19721284221806426,3301653000000,
-4.4224470997003635,-3.3166821528809827,-0.1961068027104844,3301658000000,
-34.0730671779252,-35.31919092100377,-0.1912479768078752,3301663000000,
0.4814065707419071,11.5740667557264,-0.18891716286368584,3301668000000,
-1.6351757789659889,-2.9651741868658195,-0.188675902592308,3301676000000,
-3.9124404946768054,-2.6923656295507588,-0.18800761831079965,3301681000000,
-4.1271802929397605,-3.08488420657659,-0.18627560866177953,3301686000000,
-4.547626604929827,-3.482551871027399,-0.184697009737778,3301691000000,
-37.60535084890111,-22.636729605828844,-0.17573043667417163,3301696000000,
7.2395196895622,-1.3441751545731706,-0.179593732829406,3301701000000,
-2.3457720251767125,-3.0208222934721176,-0.17934199359850148,3301706000000,
-3.9914878382487338,-2.548785148316036,-0.1773774286539715,3301711000000,
-4.056599120590403,-2.9565447765135633,-0.176289363099983,3301716000000,
-4.424458896207122,-3.432742549766054,-0.17519295607631136,3301721000000,
-31.655208067671015,-20.61676474420306,-0.16592958446030012,3301726000000,
7.797849398560226,0.6095225077645678,-0.16930783240998218,3301731000000,
-1.198336993770791,-2.8787280366801444,-0.169749612741055,3301736000000,
-3.7062532475459147,-2.7545551052267685,-0.16829299072276255,3301741000000,
-3.9835685226563453,-2.9406824438860233,-0.1667658340077152,3301746000000,
-4.278805146513172,-3.4074151578900223,-0.16559076659190364,3301751000000,
-35.16908392609433,-36.206281880553,-0.16049599122444294,3301756000000,
0.9284987905958303,11.490051581302446,-0.15864502302540703,3301761000000,
1.1346015327442467,-2.7804996845017835,-0.1597113986766316,3301766000000,
-3.338823752271517,-2.8289716760408057,-0.15864695630964093,3301771000000,
-3.971013693970293,-2.895121814657161,-0.15718601082184316,3301776000000,
-4.2482937803509335,-3.2747595703379266,-0.15637390479186966,3301781000000,
-4.660720112089978,-3.71685688200942,-0.1550150359500455,3301786000000,
-31.65529634878639,-21.436162775152066,-0.14849547155792006,3301791000000,
1.6264991349825673,-2.5818826932298315,-0.14943303495838886,3301796000000,
-3.0144402785427142,-2.8449768504789277,-0.1489177798706018,3301801000000,
-3.7834193799252915,-2.875405839770285,-0.147889772893016,3301806000000,
-4.070643409797434,-3.181051813864679,-0.14667760996869944,3301811000000,
-4.507393213168401,-3.6944643285794942,-0.1448897787115524,3301816000000,
-34.71470451519683,-22.304389942766417,-0.13755641128009855,3301821000000,
4.269350700114462,-2.0991260908465863,-0.1401094391666896,3301826000000,
-3.080476047627733,-2.866857775193236,-0.13922566754359156,3301831000000,
-3.7626148415159717,-2.84244715938363,-0.13811183834211804,3301836000000,
-3.948380510700078,-3.2019480540826746,-0.1365255764892127,3301841000000,
-4.422300406740639,-3.6505168688999725,-0.1353180939355162,3301846000000,
-57.726233121208296,-49.986901106779385,-0.12953871233552858,3301851000000,
3.1999868057247256,3.9547593693854526,-0.13043077825137772,3301856000000,
-2.7383533892709093,-2.949066401868301,-0.12959815856938245,3301861000000,
-3.7529097556166318,-2.81987107593855,-0.1287442448007833,3301866000000,
-3.9038717008830526,-3.0884560837752564,-0.12749217407052774,3301871000000,
-4.272719383808711,-3.5195529753123154,-0.1265490379433326,3301876000000,
-36.552348017518376,-31.839673263482876,-0.11974277263991298,3301881000000,
4.575550293745689,6.870850800466837,-0.1208109303343044,3301886000000,
-1.3922742074755128,-2.9945785617764336,-0.12049455179105308,3301891000000,
-3.7049769392683616,-2.8785263510890244,-0.11916849858714251,3301896000000,
-3.880356336199577,-3.0682725752515054,-0.11787344746988458,3301901000000,
-4.21186415013108,-3.506183094779917,-0.11677233686419396,3301906000000,
-35.71176485716955,-37.46766482906164,-0.1122666184223305,3301911000000,
2.1943351801150794,12.316373074493296,-0.11056145638720397,3301916000000,
-0.8480797543920887,-2.9816160768116653,-0.11081873525617046,3301923000000,
-3.7362165398990648,-2.8465046829461147,-0.1097269343140064,3301928000000,
-3.885410496600317,-3.1462251511767625,-0.10847498458074405,3301933000000,
-4.235743707912012,-3.5877106306029227,-0.1072837410576558,3301938000000,
-36.702486413165936,-32.38352543641969,-0.10118489529367419,3301943000000,
5.021997592957086,7.380783471333398,-0.10191235927335851,3301948000000,
-1.315606077243533,-3.133404324324964,-0.10212890709851419,3301953000000,
-3.767247185505836,-2.931762332670872,-0.10089300549988085,3301958000000,
-3.8187130074913487,-3.0760201796872932,-0.0997701199042444,3301963000000,
-4.085187974541,-3.4870296521087476,-0.09818996891490718,3301968000000,
-36.33467186831159,-27.403349415469332,-0.09097767416878196,3301973000000,
6.295827310018603,2.5296867858471694,-0.09409496422895153,3301978000000,
-2.0075503524236793,-2.5262864559747715,-0.09310257401646142,3301984000000,
-3.591591981867699,-2.873982649518992,-0.09169302881141987,3301989000000,
-3.8381605810679016,-3.213207236096686,-0.09049719096593643,3301994000000,
-4.234348812660786,-3.6479289702509314,-0.08968131193352828,3301999000000,
-33.78739195762229,-22.48460300923483,-0.08240296206933584,3302004000000,
5.242419987878278,-1.7737529542747972,-0.08533179609792797,3302009000000,
-3.029189316660171,-2.9810161668018162,-0.08460720626884942,3302014000000,
-3.7744893834290574,-2.9717717127246237,-0.08351154902491721,3302019000000,
-3.8943207228638608,-3.2506682476094158,-0.08227635351590216,3302024000000,
-4.2329631736959765,-3.6930453989521426,-0.08095845473153249,3302029000000,
-34.39218560025933,-22.50965560714828,-0.07362831618804776,3302034000000,
5.782852774799373,-1.9452096964512136,-0.07732662484705922,3302039000000,
-3.0842638044892765,-3.11048458140121,-0.07634191510306323,3302044000000,
-3.7743715698053357,-2.9303226258793016,-0.07539121402058188,3302049000000,
-3.8915392880600974,-3.25798998181246,-0.07393220758104299,3302054000000,
-4.2418011317193365,-3.6841701950319146,-0.07254931359158547,3302059000000,
-26.361047338814192,-18.612856632997612,-0.06674211449111493,3302064000000,
4.01389105178969,-2.6221731331027813,-0.06881894209895052,3302069000000,
-3.053129112878615,-3.16294766180974,-0.06816694642099273,3302074000000,
-3.872954330371537,-2.931191804954986,-0.06759645555407756,3302079000000,
-3.857448858877769,-3.1631270422465594,-0.06574252077418498,3302084000000,
-4.211317675057264,-3.64961562845519,-0.06466166375469654,3302089000000,
-29.975325791844064,-21.48988909196737,-0.059112336790694865,3302094000000,
2.612105001899174,-2.4392124297963567,-0.06089058771823975,3302099000000,
-3.438687977126564,-3.03132826406344,-0.05987652958449562,3302104000000,
-3.7674465510565884,-3.0032646374245737,-0.05912618195267585,3302109000000,
-3.86881948303031,-3.2722981942095006,-0.0580026343613137,3302114000000,
-29.98233532499655,-31.936688284117007,-0.053444346973559105,3302119000000,
3.666579994830207,13.04250415848403,-0.05244353579405842,3302124000000,
-0.19963879265653564,-2.9756540313209823,-0.05323704493237904,3302129000000,
-3.7506545414189114,-2.997223265207047,-0.05216312773045295,3302134000000,
-3.772171021849462,-3.028340458481667,-0.05086120715119276,3302139000000,
-3.9503046317605017,-3.416362178572409,-0.04967653590060892,3302144000000,
-34.2415392020405,-24.260035281635336,-0.04289153776422776,3302149000000,
6.686077120369991,0.535563968655564,-0.04591966228413934,3302154000000,
-2.598080660160801,-2.8469949739206992,-0.045531942586904066,3302159000000,
-3.647387831533733,-2.982331615099194,-0.04442695425639826,3302164000000,
-3.754175375138156,-3.2405782777745062,-0.04323535797304593,3302169000000,
-34.04348887302484,-35.58715918625762,-0.03895338919628032,3302174000000,
4.466520303175052,11.485049078824977,-0.03886951476676169,3302179000000,
-0.3110491735562888,-2.449505866776341,-0.03885298937199929,3302184000000,
-3.5325223116707622,-2.9742514417846206,-0.037656193452020086,3302189000000,
-3.6999745897311516,-3.110376103576409,-0.0367933612066492,3302194000000,
-3.947270004793856,-3.485009922445694,-0.03536308203280443,3302199000000,
-32.47655945635642,-21.818344036744733,-0.02892395327490512,3302204000000,
5.982639840279786,-1.3466322969621303,-0.03263620883439981,3302209000000,
-3.2609590690254304,-3.1111750256216286,-0.0315469893437613,3302215000000,
-3.7205822339824173,-3.0516177009721006,-0.030480985809240458,3302220000000,
-3.8508621524772804,-3.381054633793252,-0.02931921931732733,3302225000000,
-35.19736701795641,-24.831297370955216,-0.022013377533057488,3302230000000,
8.220709016972831,1.6750729726621858,-0.02588830009332388,3302235000000,
-2.3843633770007884,-3.144230483031247,-0.025259745047430598,3302240000000,
-3.8046792054126115,-3.0633287972802044,-0.023849000640358935,3302245000000,
-3.756806912652054,-3.22291705820196,-0.02306587987189836,3302250000000,
-34.34927008689109,-37.01828215416081,-0.018628928042974932,3302255000000,
4.468036248218648,13.624350255147723,-0.018006170842823386,3302260000000,
-0.09713409313800425,-3.0168256763275236,-0.018867444079097025,3302265000000,
-3.8188787736678917,-3.1256208889430854,-0.01786631208200174,3302270000000,
-3.7494396518800377,-3.103779221162102,-0.01653170934850536,3302275000000,
-3.900093447967548,-3.4869349252390243,-0.015841296165122035,3302280000000,
-27.921416472288634,-20.121000040802354,-0.011124672894679985,3302285000000,
2.8613961165396704,-2.1929378389307703,-0.013061603559999226,3302290000000,
-3.4749904927959334,-3.1849659352250606,-0.011478096821001836,3302295000000,
-3.7477481002355018,-3.070019001825261,-0.01073079764801102,3302301000000,
-27.605776782331287,-27.40884834917115,-0.00578236572547732,3302306000000,
5.50414102058275,9.578280969694928,-0.006416589113494225,3302311000000,
-0.946690056182698,-2.2381989457650464,-0.00672551515304896,3302316000000,
-3.5230570395604484,-2.9283088728235778,-0.005679714643978295,3302321000000,
-3.6239210119385104,-3.1214234060498254,-0.004706028571315611,3302326000000,
-33.077232840981466,-30.876430944846803,0.0005134199278849924,3302331000000,
6.7467430289675905,9.04229652485437,-0.00047542426741168715,3302336000000,
-1.2841864865623813,-3.0377595676463534,-0.0010399562507066224,3302341000000,
-3.6975672856010307,-3.1364886242271837,0.0003524124064558945,3302346000000,
-3.72593267480683,-3.1598866316448366,0.001305057248627302,3302351000000,
-32.31325141620779,-23.281937002149572,0.007818709487424549,3302356000000,
9.134728270044105,2.9061085582733566,0.004630226661023476,3302363000000,
-2.294550474491118,-2.901531523270328,0.005502399613200564,3302368000000,
-3.6356060097656457,-3.0688688139200844,0.006278692239925176,3302373000000,
-28.016868792535014,-26.27473386030918,0.011819040651308949,3302378000000,
7.32361735114833,12.269623521780785,0.011205146177577924,3302383000000,
0.41708913767494477,-2.7695466696466604,0.010118819170355703,3302388000000,
-3.6756765229166404,-3.2414637724370907,0.01089961603293428,3302393000000,
-3.707351484913714,-3.16986600737805,0.012118714168457086,3302398000000,
-32.189261385502334,-23.119825208279103,0.018261662279915308,3302403000000,
8.008674115402714,2.5344051218556443,0.01460969065997542,3302408000000,
-2.3571678387584325,-3.1096968861365943,0.01567929519112619,3302413000000,
-3.6880453528275585,-3.1147140975546432,0.01658967123905863,3302418000000,
-3.67684670162307,-3.1782065196329428,0.017522410710201063,3302423000000,
-25.774402440406664,-18.431845572486207,0.02234135225968482,3302428000000,
2.772131237584486,-1.9187143853461162,0.02009389814656479,3302433000000,
-3.4751426926063664,-3.290044744572789,0.02089739810283648,3302438000000,
-3.6947213306338544,-3.1301167091376714,0.02237696490580007,3302443000000,
-28.34264585993275,-19.469393664291033,0.027531857166505802,3302448000000,
7.029519911536606,0.21298497811855657,0.0250203206628689,3302453000000,
-2.411598113389698,-3.125306785016318,0.025631007080039844,3302458000000,
-3.6562589368055085,-3.138598066706216,0.02627374215882396,3302463000000,
-22.312755423401022,-17.40348075231418,0.030636329516296003,3302468000000,
4.909888144371262,1.5953888134948944,0.02946092358590077,3302473000000,
-2.1330883451536606,-2.4388811984570777,0.02974994864379454,3302478000000,
-3.379942546318414,-2.9887481526592947,0.03096113813333868,3302483000000,
-26.484986296879303,-19.651787585753137,0.03568176280199299,3302488000000,
4.910072480831549,0.9201189183224481,0.03323690159390658,3302493000000,
-2.6141522484693422,-2.670941293102596,0.03384826318684073,3302498000000,
-3.387815079274794,-2.986054875994678,0.034897412536902206,3302503000000,
-23.71987834534901,-18.121533851888596,0.03863876190122393,3302508000000,
2.6462432625635883,-0.15323525702334118,0.03779985854488217,3302513000000,
-2.9849943676305557,-2.9358570848857095,0.038179490564208315,3302519000000,
-24.804856722577124,-26.680378255263143,0.04171878928858736,3302524000000,
5.102890123522361,12.409325136588382,0.04228128380601312,3302529000000,
-0.20662486232449664,-2.1871958330855334,0.041323946942955825,3302534000000,
-3.4495493158870842,-3.166856360235736,0.04189860759255115,3302539000000,
-28.807834271697157,-27.005309080609518,0.04672870880921437,3302544000000,
6.429424254306882,8.687204400124388,0.04538731118241588,3302549000000,
-1.553330665875676,-2.6754306402125247,0.0456537157866406,3302554000000,
-3.4809144013427225,-3.151419798240347,0.04622968795320357,3302559000000,
-28.668634639662393,-20.65773521506873,0.05204792826593909,3302564000000,
7.296598060681494,2.820282473720637,0.048985001540724875,3302569000000,
-2.448832047368226,-3.128233694490511,0.049873726693223576,3302574000000,
-3.556807599938736,-3.1162527637013433,0.05040141399402645,3302579000000,
-21.380214992541934,-16.035123529944837,0.05391921146258372,3302584000000,
0.6670843730861854,-1.422450013613087,0.05278507678197081,3302589000000,
-3.341771520199086,-3.1771975376003456,0.053242388772106984,3302594000000,
-27.977255896838358,-26.23456645212819,0.057652200208003004,3302599000000,
6.483206112468967,8.880658151079652,0.05636534945057628,3302604000000,
-1.597409933482077,-2.736472925200307,0.05639739712669046,3302609000000,
-3.5084697076362668,-3.2156765508560428,0.05760617228171075,3302614000000,
-20.41972263654634,-15.44111072409505,0.060748492295284985,3302619000000,
1.0239900675748512,-0.9853192557255991,0.05934181444390785,3302624000000,
-3.1596418333299376,-3.12478775967086,0.06029818867855413,3302629000000,
-26.556875698980097,-19.293986091069687,0.06569854469435067,3302634000000,
5.327473656264476,2.0115609505928536,0.0627695815451381,3302639000000,
-2.830710919869133,-3.20598970595783,0.06336110806610497,3302644000000,
-26.018974186653235,-24.364039893339182,0.06710413898695652,3302649000000,
5.82790597842855,8.003271612332965,0.06636356287963796,3302654000000,
-1.7908182886315382,-2.5814002927825705,0.06651712315729995,3302659000000,
-22.263312208460594,-18.49303839227512,0.06970766854816457,3302664000000,
3.806276914088008,2.902445200779275,0.0689360072597678,3302669000000,
-2.172209330688935,-2.2862638662928334,0.06913356610245683,3302674000000,
-19.543176447466315,-15.012619194486152,0.07249410313534375,3302679000000,
2.2069847188086325,0.5150121281858564,0.07126620386890072,3302684000000,
-2.7783058054884724,-2.8848228444082276,0.07164584983985954,3302689000000,
-20.803818150449196,-15.541704333878993,0.07519490846080794,3302694000000,
2.747713874261544,0.5752084675904229,0.07411652512027786,3302699000000,
-2.8815435002565635,-3.100401145866473,0.0750462322288175,3302704000000,
-17.697905593621275,-13.590668465203443,0.07726899290936891,3302709000000,
0.3092737117967447,-0.867592634566875,0.0767485518921106,3302714000000,
-23.79662212465706,-25.853564254998332,0.07939181866537413,3302719000000,
4.662002414374523,10.424212739889226,0.07940949675940072,3302724000000,
-0.9563018970247922,-1.9785338670921069,0.07930739061719473,3302729000000,
-21.294427919654744,-16.69753944457637,0.08299093161116536,3302735000000,
3.1514936748794855,1.7564376471004532,0.08125904199004755,3302740000000,
-22.450802159204944,-24.49015538734142,0.08407253882771787,3302745000000,
4.336653109614727,9.812719240871964,0.08403121520066743,3302750000000,
-1.0831326446408591,-1.9308256048850225,0.08405259457848917,3302755000000,
-13.655997642840214,-10.824679855860946,0.08607367861710111,3302760000000,
0.3821134451793672,-0.5201781767043295,0.08594316368277087,3302765000000,
-21.030575135066197,-19.714831840057997,0.08917292468112323,3302770000000,
4.620189211490502,6.256075255390858,0.08790302183913794,3302775000000,
-18.18268085150604,-18.91498828994509,0.09058364743251449,3302780000000,
3.2928163571962155,6.12555387592863,0.08987318080095026,3302785000000,
-18.58162808205351,-20.3292783809221,0.09214102304108589,3302790000000,
3.6808986578851957,8.211747475288679,0.0922823111901939,3302795000000,
-1.2894489667860665,-1.8811053228007306,0.09207985021501638,3302800000000,
-14.70493397191167,-11.299328028574214,0.09411335158156693,3302805000000,
-12.096127413652507,-11.13790493709818,0.09635074332568513,3302811000000,
4.493415047495888,4.984636271797679,0.09525489881008237,3302816000000,
-17.955789289864594,-19.663838640683224,0.09716044908436253,3302821000000,
3.6072964347465337,7.9976004769802085,0.09698951257031413,3302826000000,
-17.56071143362658,-19.524031262734027,0.09875279922669747,3302831000000,
3.514933071096317,7.790617308539602,0.09884897892282016,3302836000000,
-12.238157530507197,-10.646486784573426,0.10079589764546366,3302841000000,
2.4709157290624013,2.3799701801295954,0.10032016213494112,3302846000000,
-14.879785908808586,-12.475820987754373,0.10228122705840305,3302851000000,
1.396981132056695,1.0795751714683044,0.10198452818486535,3302857000000,
-12.427064305815268,-9.706544371886226,0.10377984691200363,3302862000000,
-13.911342881819914,-12.366987052115931,0.10517851653220676,3302867000000,
2.9281108011503263,3.046958134022434,0.1046164003679849,3302872000000,
-12.174569506519598,-9.860704389577558,0.10571465815941788,3302877000000,
-13.413030579377569,-14.778934651019924,0.10732028803309618,3302882000000,
2.9340850225485937,6.408944577217284,0.10737199054716677,3302887000000,
-9.577397980638423,-8.022843847959473,0.10803777937498521,3302892000000,
-9.859888277995028,-7.841469569275006,0.10969952711533668,3302897000000,
-7.277000953934082,-6.699650296251852,0.11011534851760284,3302902000000,
-9.903462977500725,-8.27268226217342,0.11147849569557443,3302907000000,
-6.835296970438677,-5.937290339373444,0.11212376100972526,3302912000000,
-8.569261965052531,-8.76518080470967,0.11266044091898367,3302917000000,
-7.095150575931785,-5.63788973250991,0.11358087245901351,3302922000000,
2.936225989689384,6.177714936140982,0.11302546895718274,3302927000000,
-8.855355273120255,-7.209481941899357,0.11413217017551018,3302932000000,
-9.26056179667084,-7.68132560578856,0.11537619832522501,3302937000000,
-11.535575580960788,-11.641140049003548,0.11571931807652129,3302942000000,
-7.8247479041541945,-6.717500845176684,0.11728339883774232,3302948000000,
2.8309878287174066,5.480642271044023,0.11673827911617123,3302953000000,
-7.053013286421955,-5.595518190676994,0.11809234575816155,3302958000000,
-9.268987734761382,-7.360495801935403,0.11875857894542743,3302964000000,
-6.864994334341733,-5.355950430842056,0.11970908471355574,3302969000000,
-13.120405155105155,-12.617841824053459,0.12129251692167398,3302974000000,
-6.17004538666126,-3.0081643307482286,0.12142966383789186,3302979000000,
-4.496270708015605,-3.8285744648643214,0.12233107950234404,3302984000000,
-9.478831262746816,-8.065544937143784,0.12324039809074853,3302989000000,
-4.823554270163285,-3.4222679239116496,0.1233617238347917,3302994000000,
-7.916300199716699,-5.549077666593191,0.1247052288074795,3302999000000,
-10.42918826637738,-8.04931095278432,0.12573182418866136,3303004000000,
-9.254845220711108,-7.058890235198634,0.12717195698038397,3303009000000,
-7.959799796459312,-8.608589837851817,0.12784206289129454,3303014000000,
-12.000181306069933,-12.893662643665404,0.12927056971792342,3303019000000,
-7.96687292189579,-8.60927825601211,0.1297133469402065,3303024000000,
-11.864448508433311,-12.762832404134032,0.13107456130465722,3303029000000,
-8.002618951560832,-8.570766771659573,0.1318135714053809,3303034000000,
-15.0589161769861,-4.981823567815467,0.1364019046090928,3303039000000,
-10.462610545865084,-2.2754698186319122,0.14004945364957722,3303044000000,
-15.561112526373702,-3.4221196153566655,0.1452161805573437,3303049000000,
-10.45257288832023,-2.2904541066319166,0.14811253682870082,3303054000000,
-15.689796209818216,-3.4380002148640236,0.15344144375034213,3303059000000,
-10.439895000125603,-2.2703278622282834,0.1566590704042726,3303064000000,
-15.581586634348673,-3.3985047646893323,0.16216268044254115,3303069000000,
-10.448926460889165,-2.2729560103133206,0.16570940263711453,3303074000000,
-15.665670707085976,-3.39068223476887,0.17060471585651943,3303079000000,
-10.43686077609589,-2.232485255400956,0.1742663205370816,3303084000000,
-13.064306269378603,-2.7943871248099983,0.17752463733206408,3303089000000,
-11.654751343442152,-3.3565407747597673,0.1815865853001183,3303094000000,
-8.7534864663088,-6.260657012763806,0.1833756523724184,3303099000000,
-5.853679650320734,-4.172025611694498,0.18477055871729203,3303104000000,
-8.777918945971981,-6.203949223158993,0.18637014828730594,3303109000000,
-6.317607061536975,-4.441190974372387,0.18798656122145993,3303115000000,
-7.310133453050152,-5.138204546773851,0.1900943289999919,3303121000000,
-7.342564916974939,-5.136574409264732,0.1911822595698359,3303126000000,
-8.831486938136381,-6.175548549859704,0.19264838837122825,3303131000000,
-5.863505202160835,-4.084624362435699,0.19395030482158163,3303136000000,
-8.807095465761407,-6.090040518284974,0.19587117711503513,3303141000000,
-5.887989707569911,-4.071512568609199,0.19692349532706865,3303146000000,
-8.794297309969094,-6.076629337035121,0.19895773874717002,3303151000000,
-5.892012164717981,-4.043832566139333,0.19986396414079471,3303156000000,
-8.814531956193369,-6.060600165191742,0.2012553108361292,3303161000000,
-5.8871471924142265,-4.011332873273796,0.20226586311953054,3303166000000,
-8.883489630393395,-6.040782925495971,0.20430499280611783,3303171000000,
-4.929480139397016,-3.3051803891618183,0.20487734843923636,3303177000000,
-7.372328785625441,-5.0052977888194405,0.207495951372776,3303182000000,
-9.833218941551324,-6.643567699117884,0.20822446772839012,3303187000000,
-6.342707409392713,-4.282937825972656,0.2100080342942891,3303192000000,
-8.854469161686925,-5.914096248838307,0.21246956596084848,3303197000000,
-5.936965021542097,-3.965705346784086,0.2132674581493226,3303202000000,
-8.898686723697459,-5.909326846359181,0.21529752510931235,3303207000000,
-5.911591800042093,-3.9108355263905104,0.2164724398141076,3303212000000,
-8.895798841501241,-5.89631309970945,0.21792857157112094,3303217000000,
-5.959112574545188,-3.9224129530074197,0.21931348749341142,3303222000000,
-8.925572714610064,-5.838229154435414,0.22173112208378168,3303227000000,
-5.963954581540118,-3.8948183520034956,0.2221027712667593,3303232000000,
-8.918646628667194,-5.791162656657842,0.22446935071287544,3303237000000,
-7.429522143892289,-4.821499136072938,0.2260256501197402,3303242000000,
-7.456985595492981,-4.825299420510366,0.22749277019778805,3303247000000,
-7.43128485889013,-4.761978595900733,0.22915322788381806,3303252000000,
-7.462382332623794,-4.767038781984596,0.23034440063048356,3303257000000,
-5.997325576675154,-3.8372220759243953,0.232179463485521,3303262000000,
-7.48724561093712,-4.735213597241927,0.2338074683363822,3303267000000,
-7.499094902073099,-4.736157027800115,0.23502197054300705,3303272000000,
-8.961190082866363,-5.648883700513057,0.2369123026839719,3303277000000,
-5.98647197629962,-3.780580466679277,0.23823887511469086,3303282000000,
-8.977548369040237,-5.633268308951549,0.23975235414096008,3303287000000,
-6.035404775850145,-3.7544368674124677,0.24154141242454533,3303292000000,
-9.026726613527355,-5.578543871042429,0.24347249644153063,3303297000000,
-6.031581458412521,-3.72838632487421,0.24457398082473442,3303302000000,
-9.003330676120228,-5.523638332477192,0.24655387346147475,3303307000000,
-6.035715024098214,-3.6871641526392605,0.24798361908473823,3303312000000,
-9.019022969528883,-5.518325550712239,0.24991096683909536,3303317000000,
-7.604526369711236,-4.585593858223391,0.2507618916964226,3303322000000,
-7.53690557888658,-4.5526662233223645,0.25311316975160053,3303327000000,
-6.027641061961909,-3.644494826276985,0.2548863979396907,3303332000000,
-9.052451440821352,-5.44615084230253,0.256252619973541,3303337000000,
-6.070620944561547,-3.6095763588240564,0.2583344705504539,3303342000000,
-9.09945086701325,-5.375118723395419,0.2600209633921066,3303347000000,
-6.068828055158496,-3.602169093905911,0.26116395346863513,3303352000000,
-9.101361629049261,-5.3861573787174315,0.26355992321156385,3303357000000,
-6.058873509452832,-3.6112928574246497,0.26462134435920037,3303362000000,
-9.108348238716966,-5.299690952376372,0.2668479867192102,3303367000000,
-6.077178444633486,-3.5159511029906656,0.2679884960497767,3303372000000,
-7.602222922114684,-4.379510165749623,0.2700738267467825,3303377000000,
-7.6127222309622455,-4.411870858754292,0.27142172914650897,3303382000000,
-9.144702259492671,-5.247182714970511,0.27375540062813736,3303387000000,
-6.129364039075739,-3.4929950487048163,0.2750203587846529,3303392000000,
-8.703899024677408,-4.943738723828774,0.2779290472833679,3303398000000,
-7.62670048318352,-4.310676251294924,0.2790279697708485,3303403000000,
-6.139278372906399,-3.4386509429050927,0.28055329915827193,3303408000000,
-9.185466485916777,-5.139395688282768,0.28257768558450963,3303413000000,
-7.665001313500968,-4.256523131518677,0.284670609783487,3303418000000,
-7.67189518808064,-4.2397968663815275,0.28610796293305507,3303423000000,
-6.158402041495109,-3.355888872104315,0.2876381435200849,3303428000000,
-9.160683757716845,-5.035129724125495,0.2896758541678292,3303433000000,
-7.702106125669415,-4.15895548005177,0.29116809183504344,3303440000000,
-7.689986907383609,-4.1870633197349605,0.29433473393682424,3303445000000,
-6.1823671080372735,-3.337882065144032,0.29552995146121547,3303450000000,
-9.248188389521644,-4.958394740422577,0.29828115506524217,3303455000000,
-6.223494095736287,-3.2609704665798422,0.2989492459996037,3303460000000,
-9.255167826212686,-4.882860725467026,0.3014590479279238,3303465000000,
-6.202334316250046,-3.2497178378832805,0.3030256617798768,3303470000000,
-9.234607470870813,-4.859016496719665,0.30510516079895356,3303475000000,
-6.189166139667414,-3.202962802418332,0.30655644965616036,3303480000000,
-7.746755045204728,-4.002528143864186,0.30981914369107877,3303488000000,
-9.29067349089526,-4.813004028467177,0.311831698286592,3303493000000,
-6.221127441756215,-3.1820461999917007,0.31334523661719443,3303498000000,
-9.334350263496857,-4.703261100038886,0.31548633129559855,3303503000000,
-6.247841851196473,-3.125252295181577,0.31712052565084703,3303508000000,
-9.32663460354154,-4.693289046768655,0.319124770234926,3303513000000,
-6.222220071604414,-3.1175497331375754,0.32055395436039685,3303518000000,
-9.345288843365434,-4.636675852782278,0.3233537345603138,3303523000000,
-6.251537545936295,-3.0497000014219893,0.32494017207821185,3303528000000,
-9.367794852526126,-4.563355294969849,0.3268654873994876,3303533000000,
-6.268401053281978,-3.0569836674052424,0.3287656239184762,3303538000000,
-9.373479544865342,-4.522525168334647,0.3311192071239346,3303543000000,
-6.256686440736487,-3.0028126149336063,0.3325136604334004,3303548000000,
-7.875401249216784,-3.726123900230039,0.33425922224131294,3303553000000,
-7.824762931360143,-3.7208027269896005,0.3366331956109238,3303558000000,
-9.395841910989772,-4.402811755844853,0.3389847830398343,3303563000000,
-6.317802520702025,-2.950409099825286,0.3406066516876864,3303568000000,
-9.39838957286094,-4.392122727612783,0.3429960300542167,3303573000000,
-6.303257377240624,-2.9308418406373034,0.34439397218422024,3303578000000,
-9.438008910917068,-4.339067948305989,0.34704322681683847,3303583000000,
-6.2897895139995725,-2.873403335632969,0.3482760227772522,3303588000000,
-7.921317636209065,-3.5224259318679625,0.3513889130102548,3303593000000,
-7.8915931499154315,-3.5375104690667545,0.35280483058038575,3303598000000,
-9.46775123143201,-4.203015817429049,0.35499375536222877,3303603000000,
-6.3216643845419584,-2.8160954729517877,0.3567975743636515,3303608000000,
-9.038007913886206,-3.9347906241399495,0.36004180727963225,3303614000000,
-7.901408387690023,-3.452706361057726,0.36183417561900816,3303619000000,
-6.351425417768823,-2.7748807862945872,0.36330487566521935,3303624000000,
-9.497391155745724,-4.0887323260979,0.3659986563383965,3303629000000,
-6.356670444822759,-2.703930142496384,0.3676462463828938,3303634000000,
-7.918553874646646,-3.3347765506447202,0.3700819734113962,3303639000000,
-7.967932805398466,-3.3426339915045937,0.3719226223642724,3303644000000,
-9.553999557640127,-4.013535852356917,0.3742008444530117,3303649000000,
-6.362661264225612,-2.6119374946891116,0.3761627782694814,3303654000000,
-9.525163554445284,-3.903906038379829,0.37874310138934086,3303659000000,
-6.3976313619966945,-2.5952635396826884,0.3800217070107482,3303664000000,
-9.535022556077331,-3.8366544946011407,0.38324902798521626,3303669000000,
-6.403352546615633,-2.5432033144970347,0.3846145099517816,3303674000000,
-9.56465174450633,-3.7689518257152077,0.3868599830415815,3303679000000,
-6.3973115250663195,-2.47824761809001,0.38865370997089027,3303684000000,
-9.56964916383439,-3.7322280298845336,0.39176129207580873,3303689000000,
-6.41836507705239,-2.4616796711190245,0.3930981448557429,3303694000000,
-9.589183649257784,-3.652468681221152,0.39628433733436474,3303699000000,
-6.450985548968439,-2.4109688670259555,0.39766211329950635,3303704000000,
-9.63741643059628,-3.6062423412734685,0.4007124948710843,3303709000000,
-6.422665616776855,-2.405509178667842,0.4021957324789583,3303714000000,
-9.658233029296252,-3.54081905186377,0.40484579496106543,3303719000000,
-6.455519545349346,-2.329403270833121,0.40688716564398775,3303724000000,
-9.607872431607317,-3.474946020211809,0.40973568188325293,3303729000000,
-6.450292092981374,-2.281611526106302,0.41122486166675065,3303734000000,
-9.642979641443858,-3.3790610600543554,0.41398764563501383,3303739000000,
-6.466815117833885,-2.2867725837365267,0.4155357468754148,3303744000000,
-9.666755170609177,-3.3473115744142077,0.41862206242347333,3303749000000,
-6.486975885481842,-2.2183670769163144,0.42037003478241486,3303754000000,
-8.065514096636335,-2.752363974331485,0.4208904874997552,3303759000000,
-8.069863064708013,-2.710000256311371,0.4246648079067461,3303764000000,
-9.705077302970274,-3.2430235048561724,0.42770608734913035,3303769000000,
-6.498641154210027,-2.1135492043723256,0.4293841010349405,3303774000000,
-9.74319991232751,-3.153933208519858,0.43241135301212147,3303779000000,
-6.474875614122709,-2.1129514853910973,0.43418780103066373,3303784000000,
-9.710346948182872,-3.0863357584338647,0.4370143923212895,3303789000000,
-6.505392595580264,-2.0426379010321454,0.43922549706260955,3303794000000,
-9.745035051375178,-3.0153719927130727,0.4419424058425324,3303799000000,
-6.518343319901174,-2.025718707635795,0.44428431583408384,3303804000000,
-8.135773612935385,-2.4687994459095335,0.44624471933199167,3303809000000,
-8.153136708645553,-2.433315406371906,0.44863554762853025,3303814000000,
-8.128337035726828,-2.430217862137033,0.45076682957293274,3303819000000,
-8.178862107755076,-2.398040358440955,0.45357804082621206,3303824000000,
-8.148124740718707,-2.3537956833441847,0.4565191329951563,3303829000000,
-8.150267610400212,-2.35668200405844,0.4585527928332888,3303834000000,
-9.780166185088849,-2.734808406837173,0.461914559174458,3303839000000,
-6.553932100492989,-1.8318458526334203,0.4631003989541711,3303844000000,
-9.814221775081256,-2.6586621900041494,0.4663888670435784,3303849000000,
-6.557619038450958,-1.7354219296915014,0.4686693598354658,3303854000000,
-9.816847388959218,-2.62958979189133,0.4708991340386358,3303859000000,
-6.553076639570362,-1.7346682508725046,0.4730901818596497,3303864000000,
-9.843218362090344,-2.523885570548681,0.4762418030924041,3303869000000,
-6.568309475743573,-1.6711920254967534,0.47821120590692107,3303874000000,
-9.80551457328532,-2.4190322336390118,0.4812112906112674,3303879000000,
-6.5909625185095155,-1.6083821543697898,0.48346064429518154,3303884000000,
-9.843257889640315,-2.3584208897306973,0.48647215689491546,3303889000000,
-6.5723676271928575,-1.5762423262900644,0.48841982351056384,3303894000000,
-9.826781149124317,-2.327739420816947,0.4917710655143342,3303899000000,
-6.594459693397152,-1.5162926832235026,0.49393381757413407,3303904000000,
-9.857571040899531,-2.186197013966714,0.4973242269631145,3303909000000,
-6.57907938584787,-1.4519254121649385,0.4991276890403174,3303914000000,
-9.904779645242654,-2.1834917147687998,0.5024604023916994,3303919000000,
-6.625821509205403,-1.4042457819920247,0.5045490841121427,3303924000000,
-9.87693146345301,-2.0404292184687014,0.5078583897708224,3303929000000,
-6.609206545602252,-1.3335658690178533,0.5101581313552702,3303934000000,
-9.910729220371685,-1.992256906164089,0.5129106956383643,3303939000000,
-6.618333217049212,-1.3365040795396765,0.5147626889416319,3303944000000,
-8.285085692576464,-1.5805012936690954,0.51792378529594,3303949000000,
-8.264644773565712,-1.5753940110755276,0.5200335170661952,3303954000000,
-9.94878664109104,-1.7925335576136847,0.5229377354758102,3303959000000,
-6.621561329538301,-1.1959289574006744,0.5257903618885075,3303964000000,
-9.920256765047391,-1.748945785718274,0.5284051443760107,3303969000000,
-6.647153936698008,-1.1408933045515033,0.5306257104698373,3303974000000,
-9.969303882831873,-1.685547719385001,0.5341304411108603,3303979000000,
-8.289105878409346,-1.3618834602900722,0.5372904842257433,3303985000000,
-6.659236259532931,-1.0652633732597063,0.5393905966298862,3303990000000,
-9.903310127252173,-1.5601699842239611,0.542995077603427,3303995000000,
-8.311961587573826,-1.2097460951502532,0.5463595560337556,3304000000000,
-6.663601830224115,-0.9332082578536481,0.5490083470404745,3304005000000,
-8.279766260931344,-1.1906757893034954,0.5514642265887284,3304010000000,
-9.968489276323561,-1.349403979197922,0.5549065110838132,3304015000000,
-6.660481270862041,-0.8720097364430768,0.557000208554629,3304020000000,
-9.9544988730492,-1.3129036009488835,0.5605146663310044,3304025000000,
-6.663161855004916,-0.8198229441772249,0.5624391398288291,3304030000000,
-8.329602387525982,-0.9833258006428716,0.564663127079601,3304035000000,
-8.307777399945337,-0.9292351985187088,0.5682949275519358,3304040000000,
-9.952223124739426,-1.0897454640383073,0.5712430249132614,3304045000000,
-8.345274007796759,-0.852671765745908,0.5748416925815304,3304050000000,
-8.324824807192632,-0.8374833927587463,0.5772049558355906,3304055000000,
-6.653210858946463,-0.64513003475857,0.5791365950345683,3304060000000,
-10.001769055641777,-0.9217855352644169,0.5823884879903963,3304065000000,
-6.677508543419714,-0.5665377714713206,0.5849285624512918,3304070000000,
-9.975006319497524,-0.8371636401068189,0.5887483468853982,3304075000000,
-6.680178517070847,-0.5455041068029699,0.5909090070807249,3304080000000,
-9.99244396318224,-0.748903808076183,0.5943950337663054,3304085000000,
-6.694773961482607,-0.4606152535138978,0.5968264533050008,3304090000000,
-9.992516907359514,-0.617323065677064,0.6003627322678031,3304095000000,
-8.344183027789349,-0.48689619381427346,0.6042396973067305,3304100000000,
-8.34745190638403,-0.45802141137984953,0.606913061789465,3304105000000,
-6.6725113339487105,-0.335873879142179,0.6089630257890797,3304110000000,
-10.053166159771823,-0.4402457662321122,0.612786192360202,3304115000000,
-8.340861682608423,-0.31991722888564433,0.6156063329006453,3304120000000,
-8.332349081850685,-0.32705898418548707,0.6194568051275005,3304125000000,
-6.756167403290145,-0.21160502927673513,0.621608901151819,3304130000000,
-10.013494647082402,-0.2610379235851244,0.6254539358284186,3304135000000,
-6.7305525787628175,-0.13589665762744932,0.6273845273246244,3304140000000,
-10.000684477843452,-0.16174451316988886,0.6314363824796557,3304145000000,
-6.66594688836876,-0.0777725225874714,0.6333558606929146,3304150000000,
-10.046171260793246,-0.03861501869122754,0.6371904998119684,3304155000000,
-6.699012116410809,-0.039362481177014616,0.6393999077881958,3304160000000,
-10.002579463439458,0.054849323531933517,0.6433722040336102,3304165000000,
-23.927041941521285,0.15991176755660858,0.6335161826722876,3304170000000,
-11.307232126510081,0.07385509656836407,0.6290038043530817,3304175000000,
-6.666029872959507,0.08293738907738159,0.6260590563737205,3304180000000,
-8.796899842615836,0.11920106102214084,0.6226792828657411,3304185000000,
-6.7035397351866655,0.14233289582180647,0.6197114840049988,3304190000000,
-8.385443832048985,0.2361351620173137,0.6145820679516837,3304197000000,
-8.339942197673583,0.2801721166294192,0.6117139620029387,3304202000000,
-10.98093744345667,0.3845985635848151,0.6072016425946967,3304207000000,
-6.6670312818725135,0.27167074002286123,0.6048249557728048,3304212000000,
-9.059025853523973,0.436222526974628,0.6009068312020135,3304217000000,
-6.723933694871856,0.3523215715115139,0.598384368220018,3304222000000,
-10.884749134499765,0.5958217136780574,0.594039597363713,3304227000000,
-6.672598126110134,0.41998814208332463,0.5914990769054901,3304232000000,
-9.185404405321725,0.5836335459013812,0.5877521252901929,3304237000000,
-6.687131627066223,0.4652713651342553,0.5849336746104976,3304242000000,
-10.70430484732455,0.8040259768119817,0.5809930246948682,3304247000000,
-6.679478303790745,0.5340069880756633,0.5783870186590738,3304252000000,
-9.329141278543096,0.7466240919635602,0.5742092220918188,3304257000000,
-8.844409059212062,0.7829786311602864,0.5704563858226801,3304262000000,
-8.322799264810003,0.7855602650489222,0.5679510817556818,3304267000000,
-6.6643612907389205,0.6443135859838047,0.5650836668503303,3304272000000,
-9.404066802968124,0.9748128028125426,0.5613413507680491,3304277000000,
-6.665519396560002,0.6798901603606856,0.5589617719380208,3304282000000,
-10.466687151753623,1.1237855449669025,0.5553173890748933,3304287000000,
-6.665203180469809,0.7042524103993202,0.5522242550154102,3304292000000,
-9.482057061229607,1.10130052798034,0.5487547104072634,3304297000000,
-6.688604719620024,0.8333323699934292,0.5460671886409465,3304302000000,
-10.34954779131483,1.3094680602771553,0.5422383928224049,3304307000000,
-6.659326080750484,0.8877970293966435,0.5397502464047608,3304312000000,
-9.507616665779933,1.2882938350677062,0.5360334838796807,3304317000000,
-6.640968670052793,0.919163566285716,0.5335829866425914,3304322000000,
-8.595636992389576,1.2282215879944616,0.5298167197191321,3304327000000,
-8.27426976720255,1.2315458492868347,0.5270837765080362,3304332000000,
-9.57377270137388,1.4899979556280385,0.5235832067617228,3304337000000,
-6.618254948988435,1.0492354762049174,0.5213649551550098,3304342000000,
-10.249149900470538,1.632923513126894,0.5176465037773375,3304347000000,
-6.6564935483979655,1.107557747072224,0.5150838355397794,3304352000000,
-9.603998486592253,1.6612837598163746,0.5115842576307478,3304357000000,
-6.617615880266729,1.1592904423204284,0.5091067552362802,3304362000000,
-10.162021378627388,1.798915611018536,0.5054129845656284,3304367000000,
-6.606779146473996,1.236710162258108,0.5028459208597676,3304372000000,
-9.667249805878075,1.8156505488881372,0.4993944766251941,3304377000000,
-8.459579515559108,1.5996823588792812,0.4963700957522642,3304382000000,
-8.259831418224856,1.5970595792920468,0.4940288794708242,3304387000000,
-6.5877122020836465,1.3166726522178913,0.4911450480970759,3304392000000,
-9.652447522736818,1.9531340943741018,0.48739991788427905,3304397000000,
-6.6238225729326405,1.3668363115429107,0.4851256491222113,3304402000000,
-10.067025572584948,2.131746078871553,0.4820817402042879,3304407000000,
-6.59944855279301,1.4224256924585956,0.4791871068036603,3304412000000,
-9.673203206698297,2.115226216563235,0.47565013747771134,3304417000000,
-6.561849180633045,1.4573404823923966,0.4734097004428627,3304422000000,
-10.941007808557769,2.4834955247996415,0.4711558662746215,3304427000000,
-7.159156628612109,1.6617581258065897,0.467942746363365,3304432000000,
-9.686958845039355,2.2821497603590064,0.46411513476282545,3304437000000,
-8.228524078747682,1.9830747027087672,0.46191600146431716,3304442000000,
-8.314813632167484,2.0076025256896624,0.45845067710516935,3304447000000,
-6.933586385449513,1.7368560850805064,0.4552987603047405,3304453000000,
-8.191822965537364,2.0096294640702745,0.45289662585172147,3304458000000,
-9.916762769344755,2.5319564055332617,0.4496125154883126,3304463000000,
-6.503150252689869,1.6870414102273328,0.44736372108476496,3304468000000,
-9.666976875586133,2.5191620961738455,0.4438678421346061,3304473000000,
-6.569612821290806,1.7307485882634728,0.4419690641012833,3304478000000,
-9.888547882693207,2.6420837405375073,0.4386559153996604,3304483000000,
-6.532726809252908,1.785100412952047,0.43689922422844774,3304488000000,
-9.675392934572907,2.661125657879716,0.43299851855987254,3304493000000,
-6.537142408389514,1.8294280672445387,0.4309977502748481,3304498000000,
-9.844815653873805,2.785925313323455,0.4277390734980863,3304503000000,
-6.938760713928928,2.0067418860959867,0.4241893647937632,3304509000000,
-8.1107375268042,2.3568180854325598,0.4221092678335424,3304514000000,
-9.775400031764022,2.8946839337756014,0.41912363286676846,3304519000000,
-6.505835567253878,1.9529984036216443,0.4167286503839066,3304524000000,
-9.64913929289202,2.939260987060126,0.4133068247375507,3304529000000,
-6.527071478124518,1.9933405381058051,0.41126313713331814,3304534000000,
-9.776282343140041,3.023940055768408,0.4079661141305676,3304539000000,
-6.471102868883182,2.033443315044883,0.40566556400081405,3304544000000,
-8.03569196916945,2.587279043751121,0.4030382715983171,3304549000000,
-8.077873879072095,2.5776392158839063,0.40040873901144897,3304554000000,
-9.746111353277351,3.1527702988946427,0.39760375221947186,3304559000000,
-6.461347919483019,2.1318074498217485,0.395574722204043,3304564000000,
-9.618160706970933,3.201753381210109,0.39249994149005973,3304569000000,
-8.13452779122968,2.7090059119069934,0.3892328040697971,3304574000000,
-8.042898530677103,2.7207410624742225,0.38746009240530316,3304579000000,
-6.469866884765108,2.2198802884167006,0.38571894659592826,3304584000000,
-9.595510571631994,3.3176083645765257,0.3826320672959816,3304589000000,
-6.454208845759134,2.2600457551145032,0.3800350474358362,3304594000000,
-8.017167430777372,2.8314030652360893,0.37602027819330314,3304601000000,
-8.02346120722557,2.8788675065192,0.37403866474707215,3304606000000,
-9.672262944653816,3.485167687556926,0.3710040787483001,3304611000000,
-6.409461363164311,2.3288573461076574,0.36894424808940135,3304616000000,
-9.551198540708993,3.5092509409319614,0.36589196835506277,3304621000000,
-6.442229288426687,2.3667575273577786,0.3639456583097888,3304626000000,
-9.617216279574928,3.6100666038531046,0.36038152685333674,3304631000000,
-7.978305751782441,3.0223933727646846,0.35790561982409486,3304637000000,
-6.380926671539092,2.4454555887405407,0.35592567776962936,3304642000000,
-9.578354529897485,3.703708810439517,0.3528546485046275,3304647000000,
-6.380386596118515,2.483310135942407,0.35074782094085416,3304652000000,
-9.527225955736963,3.7399888347774395,0.3480395538054107,3304657000000,
-6.361128817915824,2.5016998968925535,0.34604538302587806,3304662000000,
-9.555956361462329,3.8087273765995358,0.3436213006444547,3304667000000,
-6.388639104921531,2.5599325690542702,0.3416173532123613,3304672000000,
-9.51864016162976,3.831920808168138,0.3387306626275194,3304677000000,
-6.367233676142678,2.5978517982003004,0.33709419942054397,3304682000000,
-9.50484200872378,3.9218323884299413,0.33431712353886,3304687000000,
-6.348105981506326,2.6274042315104893,0.3321306203179255,3304692000000,
-7.913185275510247,3.297962079921058,0.3292911492641441,3304697000000,
-7.944416004852456,3.301730458008156,0.3275619074107353,3304702000000,
-9.524714024672598,4.020482185943939,0.32474569027879063,3304707000000,
-6.803017138224033,2.8699141785732567,0.3221036819222086,3304713000000,
-7.914795988168217,3.378287674049541,0.32008067759400427,3304718000000,
-9.454260404317125,4.110236867112056,0.31716622047810294,3304723000000,
-6.327118532592152,2.789974002841754,0.31536406622755236,3304728000000,
-9.422147258130982,4.1670654265884375,0.3123850609150554,3304733000000,
-6.3214068995257096,2.7705538073411837,0.3102582649567765,3304738000000,
-9.449049705899663,4.164387498112126,0.3078819320459932,3304743000000,
-6.293993226736007,2.8141176157313947,0.3058037271993519,3304748000000,
-9.411748864285157,4.24189257472051,0.30294567606685485,3304753000000,
-7.861626583036213,3.57839411309164,0.29995597708318633,3304759000000,
-6.288071537270804,2.871082706204692,0.29880511409487376,3304764000000,
-9.373530094006453,4.312609807009376,0.29585084007059126,3304769000000,
-6.298086098268252,2.8892274260428445,0.2945088506232494,3304774000000,
-9.350837880323413,4.359874588232745,0.29176892179510533,3304779000000,
-6.290264848083277,2.945442562819824,0.2897615089824878,3304784000000,
-9.371455848131156,4.434118004091182,0.2876143394189565,3304789000000,
-7.8052025703616765,3.7060671509542105,0.28470152627037676,3304794000000,
-7.792232457861779,3.7342967157099594,0.2828292855345626,3304799000000,
-6.245778425365925,3.0064359152863283,0.2812677720978444,3304804000000,
-9.352619463994255,4.517092885846218,0.2786938916007586,3304809000000,
-6.2313828554834,3.0529242420432374,0.2771309331293052,3304814000000,
-7.8090212092700275,3.812966258757908,0.2739685999226718,3304820000000,
-9.295201121884695,4.5799805737596335,0.27133170142851326,3304825000000,
-6.20818718052361,3.0726935984434425,0.26989815990015026,3304830000000,
-9.339017157369089,4.642146658861966,0.2671929807564174,3304835000000,
-6.216068207165829,3.105329481666867,0.2658280689039468,3304840000000,
-9.299463353555996,4.669114841774308,0.26307249424304585,3304845000000,
-6.238584468345092,3.14295093295289,0.2609901487654589,3304850000000,
-9.24110513417363,4.755599051668101,0.25850551600607796,3304855000000,
-6.208755987003258,3.196800957891944,0.2572801343842575,3304860000000,
-9.251047982966169,4.772240203664808,0.25460189733415556,3304865000000,
-6.185570532720256,3.2043583725864044,0.2526571444588751,3304870000000,
-9.217330808207878,4.798555258737524,0.2504719230896075,3304875000000,
-6.19766645515138,3.2290740936709335,0.24872187078824542,3304880000000,
-9.218028412653403,4.84873513633074,0.24613034536755674,3304885000000,
-6.184724753123697,3.240645519825229,0.2443766389185782,3304890000000,
-9.185358377302093,4.941093437770106,0.24237098960673661,3304895000000,
-6.164605462915833,3.276391378243055,0.24053954838576494,3304900000000,
-9.236895880237899,4.935925590548855,0.23780654762098016,3304905000000,
-6.16328124857907,3.319265672892423,0.23657197743887312,3304910000000,
-9.214675986750201,4.957096237904253,0.234157869325228,3304915000000,
-7.640601301161058,4.16880521798536,0.2316796014724082,3304920000000,
-7.671651648151106,4.190385065348965,0.23027950260986443,3304925000000,
-6.148899229291585,3.3458306876566253,0.22839741159530857,3304930000000,
-9.182470184431905,5.067056730098873,0.22598115658196805,3304935000000,
-6.135653770090227,3.4157810912362025,0.22425993856285953,3304940000000,
-7.622567023063113,4.26431205998457,0.22270050640433472,3304945000000,
-7.608289177453593,4.2634064898184345,0.22009534702325684,3304950000000,
-9.13194066066291,5.119666696221241,0.2180590416649653,3304955000000,
-7.634582822677145,4.300816041403536,0.21610104438154268,3304960000000,
-7.639580686623267,4.322614615621392,0.21381650284738166,3304965000000,
-6.125626467942546,3.44707643986754,0.21260375198136816,3304970000000,
-9.102942831014834,5.228375395468861,0.2102755535961703,3304975000000,
-6.075026485755741,3.4772587350993094,0.2085688871576951,3304980000000,
-9.131276739531582,5.254803049192125,0.20677427527175718,3304985000000,
-6.085499342937694,3.4897212688023895,0.20495805587910745,3304990000000,
-9.098762268380126,5.276160657325292,0.20188807183242466,3304995000000,
-6.067937873804989,3.546076851275584,0.20113629193326404,3305000000000,
-9.077227943758269,5.303268222138225,0.19857078084308324,3305005000000,
-6.074217887653465,3.5666086183110672,0.19737615887918167,3305010000000,
-7.566051635788527,4.46027269912668,0.19458992807772113,3305015000000,
-7.588942195892319,4.47053770967849,0.19368504019838248,3305020000000,
-9.069270395541224,5.382134923339772,0.1914640870705464,3305025000000,
-6.040488430363709,3.5748994756227512,0.1897058807491027,3305030000000,
-9.050558151560525,5.415627463522217,0.1875825376830139,3305035000000,
-6.022765662536904,3.6110721961049617,0.1859252599092321,3305040000000,
-9.050989496273381,5.437169446854294,0.18386851256714234,3305045000000,
-6.049498817451697,3.685524088928245,0.1826321892451971,3305050000000,
-9.037827038978469,5.487855116636145,0.18049924902276954,3305055000000,
-6.048198742283008,3.7011301272379127,0.17869013895850233,3305060000000,
-9.00340791470521,5.554398837528376,0.176759569595405,3305065000000,
-6.00575432736571,3.6846462915150364,0.1750367722491777,3305070000000,
-9.006416379582657,5.559652504903896,0.17317280961887824,3305075000000,
-6.007732250679047,3.724105606630374,0.17152868303733346,3305080000000,
-8.998074163193301,5.596045640917551,0.16888138721692478,3305085000000,
-6.020293547380704,3.736641738631328,0.16778451903365071,3305090000000,
-8.999647169740111,5.623981121766715,0.16549502790546802,3305095000000,
-6.029470819945324,3.7607464833764985,0.16383393989392264,3305100000000,
-8.994379781150215,5.63137518404669,0.16207114158573188,3305105000000,
-5.9975556429406405,3.8195316254532194,0.16014959403116494,3305110000000,
-8.955400691574848,5.645085659726172,0.15818891161520943,3305115000000,
-5.969074950283649,3.8194809449352807,0.15687749017975067,3305120000000,
-7.465540904635259,4.7474403217820464,0.15487052511343108,3305125000000,
-7.473803288641238,4.758943007117733,0.15351723720440177,3305130000000,
-8.937170600208459,5.713605479836323,0.15154657456948617,3305135000000,
-5.961557267971099,3.8314500273320937,0.15012230143953695,3305140000000,
-7.451608991028715,4.772552466324177,0.14725303212948818,3305147000000,
-7.472414752479349,4.818024643198458,0.14589499998584873,3305152000000,
-8.898677383037068,5.82164464953446,0.1436276051174095,3305157000000,
-5.97992661821295,3.8966661230084374,0.1425256213352833,3305162000000,
-8.89653609570462,5.802813780835262,0.1407134404390646,3305167000000,
-5.974581363719669,3.9093589155424966,0.13925201549691404,3305172000000,
-8.896103111769275,5.853756789385964,0.13716782094053803,3305177000000,
-5.962270561489851,3.9153924102961666,0.13578210115275532,3305182000000,
-8.911265008078264,5.911544723307055,0.1337917100007372,3305187000000,
-5.9120330910061885,3.9437209611395216,0.13238876758778836,3305192000000,
-8.855517221038138,5.904564807796473,0.13013400067480704,3305197000000,
-5.961520868714768,3.9407164293515957,0.1287294151293947,3305202000000,
-9.833571270176016,6.5698121154212155,0.1272036801366792,3305207000000,
-6.3401702587266096,4.2657812121276955,0.12519863235868808,3305212000000,
-8.852981333730277,5.9901502748006195,0.12329822407894027,3305217000000,
-5.919299726397852,3.9606561677967425,0.12185328996247104,3305222000000,
-8.856992427096225,5.991523717166844,0.11991331228516815,3305227000000,
-5.911085564471599,4.013002424100311,0.11847541060049645,3305232000000,
-8.84869673944839,6.019273850493045,0.11678222116436623,3305237000000,
-5.920847477396131,4.061746793416677,0.11528778021312107,3305242000000,
-8.86822947015388,6.019953067264615,0.1135987024788152,3305247000000,
-6.962265698170729,-1.3273103690101464,0.11072865794393649,3305252000000,
-10.834276538571594,4.923204111361196,0.10800699916674089,3305257000000,
-6.657268741988005,-0.683887989308743,0.10532302546405767,3305262000000,
-9.221078922600652,8.604242155371626,0.10458913482199562,3305267000000,
-6.2786425554009275,2.10577780911924,0.10237259624823715,3305274000000,
-9.028154294901144,8.947361428391758,0.10142395321878994,3305279000000,
-5.880151209834209,1.05996443578614,0.09955831053723618,3305284000000,
-9.000804465049155,8.723616105899785,0.09851131820935814,3305289000000,
-5.896869104883277,1.0516850715362835,0.09714233531494075,3305294000000,
-8.996864831862862,8.929138919094433,0.09588966890330522,3305299000000,
-5.947113451100167,0.981371251411586,0.09443761474531406,3305304000000,
-8.900253036160311,8.852305905931916,0.09337077679363148,3305309000000,
-7.449882226567528,5.094384311639719,0.0929953648461061,3305314000000,
-7.414485445817055,4.958235823196037,0.09060490698910774,3305319000000,
-6.000589911442074,0.9926690325703615,0.08876420093260087,3305324000000,
-8.857267310740019,8.916743761207659,0.08787042018682775,3305329000000,
-7.430261659243841,4.969568728459849,0.08621416407420789,3305334000000,
-7.430307144261803,4.977629642619225,0.08518358593562442,3305339000000,
-6.0002860888410385,1.055420622964459,0.08359813500844131,3305344000000,
-8.832739571268943,8.899437049101438,0.0829228491619944,3305349000000,
-6.0154944165107365,1.0556285077049776,0.08121078098064925,3305354000000,
-8.811884128759116,8.979928227134831,0.08027643925275459,3305359000000,
-6.071246747121844,1.0967633889555193,0.07865851208560677,3305364000000,
-8.783622322799436,8.976701376127888,0.07768817834051762,3305369000000,
-6.040173971942965,1.1064148927790718,0.07591419830695928,3305374000000,
-8.752607453948013,8.998146476775045,0.0750408104267771,3305379000000,
-6.085827990960932,1.1201435549604843,0.07336766115613642,3305384000000,
-8.75931649116933,9.001121940391256,0.07256593172470352,3305389000000,
-6.038796080375666,1.1328284373862425,0.07073950948763891,3305394000000,
-7.402927732435758,5.081098224617581,0.06913168677649462,3305399000000,
-7.387257474439272,5.1015676188014085,0.06833064237538423,3305404000000,
-8.711409574879449,9.0194240346987,0.06710858825256251,3305409000000,
-6.10804304257302,1.1752437546150747,0.06542431886406284,3305414000000,
-8.672232616442411,9.031804219949345,0.0644025310680949,3305419000000,
-6.083570500195988,1.2358807826707507,0.06258756033644446,3305424000000,
-8.649728468921854,9.052976330779233,0.06218446399769057,3305429000000,
-6.114704233182579,1.2004207882836568,0.05978763542032462,3305434000000,
-8.614674524057572,9.072460292497714,0.059292979071538854,3305439000000,
-6.146867152465117,1.2519666818007933,0.05752142264246794,3305444000000,
-8.615154310995521,9.086458724684118,0.05667412627413123,3305449000000,
-6.137257723607518,1.2688175467283491,0.054849784659130596,3305454000000,
-7.396564497625456,5.1722218819233525,0.05378480629831792,3305459000000,
-7.369104415903173,5.189495944988886,0.05247520882404814,3305464000000,
-8.590333185098874,9.092592505781761,0.05174536708238547,3305469000000,
-6.15434376176511,1.2683408835645946,0.049959498182732806,3305474000000,
-8.594628255914255,9.112551384148011,0.04917485850361967,3305479000000,
-5.6905847891077705,-0.6445544908836767,0.0471857993326348,3305484000000,
-3.5817218029543825,7.028440852137145,0.04877123638864629,3305489000000,
2.5495795159043073,5.224753056758063,0.051798566277278024,3305494000000,
0.1618839806598834,6.926038449899246,0.05572772129114849,3305499000000,
0.3699305121498074,6.829405589837734,0.05744579412464125,3305504000000,
-1.9659787631671855,8.645997529669309,0.06065781613063821,3305509000000,
3.237980287659299,5.167879882610107,0.06426200291485931,3305514000000,
-1.5717919091571875,8.778299105588934,0.0672673251921566,3305519000000,
1.4526885411131505,6.556211714916413,0.0705448534668996,3305524000000,
4.990952996441012,6.4194858458172765,0.07517943553250712,3305529000000,
-1.7126303738539772,10.258319689429547,0.07881482055147616,3305534000000,
3.92026580389864,4.943774301806273,0.08280239106149927,3305539000000,
2.8238845116747426,6.373621846501257,0.0877254544962173,3305544000000,
2.0343047131826175,7.2382774870578785,0.09080916346005266,3305549000000,
-0.2891182267775189,8.840045428630011,0.09429228262572047,3305554000000,
-10.115192735325389,2.6804325698738887,0.09125804388555171,3305559000000,
-9.981928574504021,2.664690122371242,0.08740594367923661,3305564000000,
-11.80270333377147,9.88946904391139,0.08588865682850845,3305569000000,
-5.058633046413479,1.9800998182439953,0.08414232134795467,3305574000000,
-6.220248060779814,4.704747399846937,0.08334801855829212,3305579000000,
-9.103133063923195,8.03958692625231,0.0814137667497286,3305586000000,
-9.560197943097188,9.479110308358724,0.08131327603946158,3305591000000,
-7.226397600941367,5.476659465248677,0.07968948353619892,3305596000000,
-7.260194323336244,5.537361115071244,0.07850475225162726,3305601000000,
-7.1984911973311245,4.634358878336558,0.0774222999943135,3305606000000,
0.7704621490774396,-4.708903514905845,0.07692994092019001,3305611000000,
-12.107967998620367,11.095479436838142,0.07537643938047685,3305616000000,
-4.324084834675431,2.3232362690525967,0.07456454023277412,3305621000000,
-8.839698806396799,7.952027989597466,0.07313049177899462,3305626000000,
-7.3477889917771675,5.40067096668977,0.07211042458699814,3305631000000,
-5.6334050098279915,3.487290943481691,0.07133325839128879,3305636000000,
-6.987576594434844,4.6989995419741275,0.07037402248817394,3305641000000,
-6.313011744550676,4.765816693733805,0.06885956605286384,3305646000000,
-9.136875026870435,8.300106652778851,0.06851868894988997,3305651000000,
-9.3616078953168,9.3270065373114,0.06697982066122836,3305656000000,
0.7735829643910884,-6.704897810453893,0.06579177448926296,3305661000000,
-8.54642311302886,6.8737693652394585,0.06467682773272737,3305666000000,
-8.692405057305642,7.521118613669906,0.0636122624026745,3305671000000,
-8.728622260353406,8.11786912067491,0.06293134638299973,3305676000000,
-9.06265902457267,9.39716606621647,0.06141594141867569,3305681000000,
0.40499813272154844,-5.573209668142698,0.060450303556082385,3305686000000,
-8.08337347988448,6.539625546456128,0.05963118050729842,3305691000000,
-8.9042499890719,7.471567085369381,0.05840829842935976,3305696000000,
-7.5271228447061755,6.019305557478389,0.056769451490407116,3305701000000,
-8.116669995493474,6.824864901525899,0.05618533742914947,3305706000000,
-8.516912737824878,6.9252208922535194,0.055117887151884634,3305711000000,
-9.464634682004165,11.847655479150669,0.05426977161924942,3305716000000,
-6.263821459154914,3.072342393435864,0.05235452809108425,3305723000000,
0.58928805015426,-4.75702569229814,0.05143884657854965,3305728000000,
-9.911331089406408,8.4231376857834,0.05028832044466969,3305733000000,
-10.58016878960743,10.907379520296564,0.04899328965347166,3305738000000,
0.19569637219519556,-3.5440179342125333,0.04822254584195827,3305743000000,
-9.624290540465381,7.818340356490849,0.0475462243343164,3305748000000,
-10.19884014640491,9.543343644056621,0.04631032573159962,3305753000000,
-10.370367754577366,13.015958782111236,0.045690336958315377,3305758000000,
0.4805905034676499,-6.910188581068136,0.04400512775827344,3305763000000,
-9.888285179773707,8.556051813725864,0.04262163689532894,3305768000000,
-10.521597124929432,10.680748302115108,0.0418280123603181,3305773000000,
0.1854271729307358,-3.2750424452170854,0.04149330882570403,3305778000000,
-9.675170258250649,7.847646673006243,0.040040174186960764,3305783000000,
-8.33137728587148,6.927485183327797,0.03862521441994191,3305788000000,
-13.119867219679064,15.740373277093454,0.03760551945759388,3305793000000,
0.38575352110780886,-5.15823588053716,0.036822554921982185,3305798000000,
-9.863299415918563,8.393435136940873,0.035654138317749585,3305803000000,
-10.51154636035972,10.282253834624424,0.03461839482997226,3305808000000,
0.24119966362287018,-2.579839889503739,0.033899845141075774,3305813000000,
-9.576500641345177,7.814191362617364,0.032553611975179884,3305818000000,
-10.168526389513909,9.030195308314283,0.031071032017161188,3305823000000,
-9.849515083052868,9.87436718538053,0.030270657854043242,3305828000000,
-0.08107554326437644,-3.0223782363613663,0.029624312060350776,3305833000000,
-9.857999649182883,8.289111241278116,0.028406157891997,3305838000000,
-10.327194004948533,10.057522714215214,0.027387377709239446,3305843000000,
-0.08155425086257902,-2.3169005795689395,0.026943519087496443,3305848000000,
-9.562871156145507,7.831679010018396,0.02560765014770935,3305853000000,
-7.11341736420537,5.680321244388269,0.024309645876022783,3305859000000,
-12.774251659382399,13.02033484331208,0.023527525563053202,3305864000000,
-0.12902362321727862,-2.383464088157811,0.022244630521653767,3305869000000,
-9.529496277588855,7.836002267123392,0.021238887336817294,3305874000000,
-9.943208794550538,9.074452727447435,0.02012826266916381,3305879000000,
-9.050260537072033,9.234389250297799,0.018890867443750025,3305884000000,
-1.081243461798098,-2.547239298251229,0.018632902121907116,3305889000000,
-9.692616581697717,8.384366331266706,0.017296668176568348,3305894000000,
-10.095509043789903,10.148904259898176,0.01609222626660472,3305899000000,
-7.2772474135798495,6.482749972928093,0.014885698143649744,3305904000000,
-1.3741280983799702,-2.9360091895311826,0.01404894968526243,3305909000000,
-9.860191559115666,9.149367758210966,0.012747236869866096,3305914000000,
-8.81613209537402,9.13438292704833,0.012199911211636383,3305919000000,
-1.3168147139864161,-2.3997479248406193,0.011281614767033096,3305924000000,
-7.080707478577768,5.709402471800041,0.009772369974025839,3305931000000,
-11.923482107565555,11.014086143678274,0.008355232049418869,3305936000000,
-9.281283036919563,12.531103554298578,0.008402786283459331,3305941000000,
0.6838260757680772,-10.506453652950086,0.00724625080033578,3305946000000,
-12.453997617761367,13.549526787247832,0.005564669065859606,3305951000000,
0.9076508953664204,-4.522229489867258,0.0047308204812688956,3305956000000,
-14.474317476488135,14.136307308873146,0.003973823409704283,3305961000000,
-9.41381388925249,12.905013160998154,0.0034859436517704697,3305966000000,
0.476207379412985,-8.6990063247454,0.0015729121915808318,3305971000000,
-11.791834087617831,11.442889044381568,0.0010141631083014089,3305976000000,
0.010762677462307638,-1.868679840589359,0.0002430918834664739,3305981000000,
-10.8129179615732,8.859910155039152,-0.0011398319931707366,3305986000000,
-12.513425915629364,13.600035626197677,-0.002349520979888007,3305991000000,
0.5681843209303902,-3.541738396445302,-0.003052765547871083,3305997000000,
-9.041782720447033,7.200360202106503,-0.004081689029881375,3306002000000,
-15.640411493231772,17.337121009709666,-0.005882984392736583,3306007000000,
0.9874455795696913,-4.645074687059843,-0.006324170157491654,3306012000000,
-11.251746280692037,9.920509940450083,-0.007629327093946095,3306017000000,
-11.58364032640505,17.11021392963455,-0.007352792288359931,3306022000000,
0.4177227179213369,-8.962634068023453,-0.009145558671190882,3306027000000,
-11.848028853254382,11.507471176585982,-0.010765031473503895,3306032000000,
0.07510004201529132,-1.9353702482790665,-0.011110855746743743,3306037000000,
-10.858914846235347,8.795815793981511,-0.012327674555713477,3306042000000,
-12.622805633801239,13.73078961562038,-0.013615448927852386,3306047000000,
1.1138146175290808,-4.6955977067058,-0.01410623763792823,3306052000000,
-11.27450753584926,9.887796106912955,-0.015534737090213828,3306057000000,
-11.548165773616134,17.306676289399338,-0.015334733493155043,3306062000000,
0.17200569681573077,-7.514636826393889,-0.017310178439719492,3306067000000,
-11.940122145606521,10.780989514337625,-0.018229054653490007,3306072000000,
-11.129174989435644,12.141822857262532,-0.019796797572031385,3306077000000,
0.7275923276650783,-4.415405908773963,-0.020237860988863883,3306082000000,
-9.555814776141087,8.028254731497652,-0.021142095827534305,3306087000000,
-10.406734140328908,10.109232856660242,-0.02230092221780516,3306092000000,
-9.666398303396937,10.429148151348857,-0.02281519443260525,3306097000000,
0.12799364550556835,-4.758304357578668,-0.02377952265973218,3306102000000,
-10.021976702217037,8.689940719204747,-0.0250241575810061,3306107000000,
-10.768363084694109,10.984332381331422,-0.026243426384148984,3306112000000,
0.7484962565287294,-3.770781135797537,-0.02665349919197736,3306117000000,
-9.703090671983228,7.932531783410843,-0.02770241380915447,3306122000000,
-10.357606060539627,9.85960563737344,-0.029144961540293675,3306127000000,
-7.085251009675043,5.634844348775147,-0.02996792426120649,3306133000000,
0.24795536601595528,-2.403245378031033,-0.030798565060269917,3306138000000,
-9.708827045371994,7.908574240816157,-0.03167721072475076,3306143000000,
-10.399831645169959,9.813630693444825,-0.033266006900681114,3306148000000,
-9.776751209649023,13.928309523552704,-0.03317422197271434,3306153000000,
0.30601104335717183,-8.105487536985722,-0.03450575859089742,3306158000000,
-9.984065443138052,8.663753071385832,-0.035993358391987654,3306163000000,
-10.988034969394592,11.396683589721823,-0.03697916994951008,3306168000000,
0.9377940157285091,-4.076018784299246,-0.03759814629660815,3306173000000,
-9.702806400704512,7.88606660644487,-0.03895846567569949,3306178000000,
-7.123809238602656,6.174398015893174,-0.0395595415656646,3306183000000,
-8.554559550382997,7.19363207201156,-0.040593538914483675,3306188000000,
-7.562898470508344,6.2371034344899225,-0.04184186467556693,3306193000000,
-7.8934498790884735,7.0759640151954635,-0.04238730113882931,3306198000000,
-9.60444707397814,8.927643084359696,-0.04338064619601729,3306203000000,
1.6286401986153565,-6.279855661282073,-0.04391138070253236,3306208000000,
-10.887270534343147,12.936595942336513,-0.044913594920978635,3306213000000,
0.42666447339146957,-9.055944003155133,-0.04605306744481065,3306218000000,
-8.585359166134248,7.299277246909477,-0.0471882483068195,3306223000000,
-8.80067153170467,7.905580300399453,-0.04800392517871326,3306228000000,
-9.084448465692914,8.71382196160745,-0.04902041437049784,3306233000000,
-7.877248039714147,10.217929823106877,-0.04891303905853459,3306238000000,
0.2852859614912715,-7.13070790027975,-0.050753527272461,3306243000000,
-8.455029590571767,6.781788684557652,-0.051742370667028144,3306248000000,
-8.640283306715398,7.209393291252127,-0.05279525434609328,3306253000000,
-5.640353112460588,4.383180391299262,-0.05371045955419224,3306258000000,
-7.03967400749541,5.5844082981594605,-0.054397390906289096,3306263000000,
-12.841498545038986,15.201898068932021,-0.055287052442120406,3306268000000,
-7.417640170308478,6.985024331175716,-0.05593312724756409,3306273000000,
-6.847622530136558,4.252929226560987,-0.057015915217843355,3306278000000,
-7.36150305027177,6.692215720491758,-0.05765912036705852,3306283000000,
-7.155890589640549,5.2088773258172045,-0.05904194063754438,3306288000000,
-7.0688589462191995,5.620350064040823,-0.05985860080486835,3306293000000,
-7.124286216765974,5.615478818201429,-0.060513768524312374,3306298000000,
-7.130838338661162,5.583972675907096,-0.06153839674617229,3306303000000,
-7.107835567355883,5.564731649824958,-0.062309752414554706,3306308000000,
-3.921717636478214,-2.1047795293685643,-0.06379999867977856,3306313000000,
-8.32679882611232,7.862917557620749,-0.06494529601351053,3306318000000,
-5.87616101856072,3.927510423092496,-0.06559226236004342,3306323000000,
-8.815068679317905,7.7510542041715,-0.06662653617442675,3306328000000,
-5.740510668639328,3.5286888039505966,-0.06730767864443703,3306333000000,
-8.761941494338382,7.579854738538412,-0.06831478162792753,3306338000000,
-5.561302445380605,3.5556369855656724,-0.06941823517136896,3306343000000,
-8.88997308349824,7.5902784688864635,-0.07015803653652031,3306348000000,
-7.262119946360468,5.546704740261401,-0.07159341134173412,3306355000000,
-7.230765934216813,5.530219595844054,-0.07227591153833637,3306360000000,
-5.913000376972239,4.084911009449074,-0.07324759868666893,3306365000000,
-9.136794833441554,7.497141535881772,-0.07457602117321122,3306370000000,
-4.003474743226329,2.235175067508317,-0.07468346741898457,3306375000000,
-8.653413093419344,6.935625248626516,-0.07642897056761136,3306380000000,
-5.161691543829991,3.5633000556366894,-0.07673255513061698,3306385000000,
-9.229103311767346,7.704310241257628,-0.07850559945275751,3306390000000,
-5.069969393224208,3.5805562739986043,-0.07874071370564592,3306395000000,
-9.215340904540206,8.027488837299813,-0.07991320456611002,3306400000000,
-5.771823014998077,3.806381748662331,-0.08080306119252509,3306406000000,
-8.374940001733398,7.703708156821462,-0.08147609191743493,3306411000000,
-10.093823160810304,13.258783067942593,-0.08178971308052121,3306416000000,
-7.114077253661405,7.215030095187157,-0.0827581987811781,3306421000000,
-10.526447616998478,12.260690854976584,-0.08350704986590898,3306427000000,
-9.990910147892532,3.3052574230894454,-0.08752794678952705,3306433000000,
-13.49944171973127,6.502185527793654,-0.0908937548519413,3306438000000,
-9.411984938839913,2.7576233378575505,-0.09358822968960742,3306443000000,
-13.568832668427564,6.492029552135664,-0.09723405919679652,3306448000000,
-27.666715901900076,-0.8489322752987166,-0.09951795041325599,3306453000000,
-11.863701345360235,6.713787822336451,-0.10185744417575764,3306458000000,
-10.160307307487143,0.9746125765678072,-0.10469284317075724,3306463000000,
-14.42013128353748,8.80199369414214,-0.10698465635312665,3306468000000,
-9.243098479244816,3.6495069662391435,-0.109142220094882,3306473000000,
-13.115507147636809,4.982698617905788,-0.11206464415725935,3306478000000,
-9.87561170124093,1.710197495084846,-0.11510781788811515,3306483000000,
-14.304630066456008,7.781406013796325,-0.11797231253739104,3306488000000,
-11.792135339301527,1.1513664569567883,-0.11844985231845381,3306493000000,
-8.980800150906534,5.8199418396960185,-0.11941458062889243,3306499000000,
-11.647586380969154,3.6089095236879127,-0.12303944529447412,3306504000000,
-11.25410766454198,4.662578535864736,-0.12583010741777306,3306509000000,
-11.318052681721786,8.517088503008384,-0.12744510564790754,3306514000000,
-8.686550758554572,4.047545670967548,-0.1292027387059896,3306519000000,
-6.341895351006438,3.0193296407671606,-0.1303358899193191,3306524000000,
-8.991484036986906,8.90157390537044,-0.1315718439642174,3306529000000,
-5.871585999846937,4.2144324857119,-0.13251939150780315,3306534000000,
-8.246991801690134,5.951708401524931,-0.13387245780775076,3306539000000,
-6.260623246319717,2.6595270228570373,-0.13614395309818805,3306544000000,
-8.848872656712423,8.058755729950677,-0.1370978734362711,3306549000000,
-5.919960488871415,3.942853844040716,-0.13861215654128653,3306554000000,
-8.483579795721905,6.296680352294306,-0.1398503006101728,3306559000000,
-6.168237728103651,3.035854270155407,-0.14103239926084962,3306564000000,
-8.793386261753769,7.5413835599307255,-0.14267938054732057,3306569000000,
-5.9677914153233,3.771254513516867,-0.14396323062099256,3306574000000,
-8.587556919441187,6.529405728611582,-0.14556895849929763,3306579000000,
-6.1037531686021,3.2699243804123093,-0.14672171210941323,3306584000000,
-8.788027767466245,7.191355391927087,-0.1484783676299144,3306589000000,
-6.015847532570901,3.689940865753547,-0.1496758960052747,3306594000000,
-8.6566006121185,6.582087887257905,-0.15153384899559494,3306599000000,
-7.453856943758616,5.1935458483063925,-0.15323425978911728,3306604000000,
-7.397594413494866,5.1266657747603706,-0.15442979486242833,3306609000000,
-6.04554558602476,3.65380344667222,-0.1558174799840741,3306614000000,
-8.76665443191581,6.588112113552084,-0.15755399553844465,3306619000000,
-6.0469088776663185,3.5588099639004604,-0.15867536300887322,3306624000000,
-8.814860849769099,6.716074532321866,-0.16034824185034263,3306629000000,
-6.070066953116012,3.670559461955209,-0.16146858288746976,3306634000000,
-8.818855421389113,6.515161787120923,-0.16308334207453912,3306639000000,
-6.079712173155525,3.6147826679750676,-0.16435181499847473,3306644000000,
-7.445811743273565,5.190302734114305,-0.1663231172001259,3306649000000,
-7.451016184945568,5.1164123982884,-0.1675761965833962,3306654000000,
-8.837845531825192,6.457756110158657,-0.1690408401827442,3306659000000,
-6.0617659115993066,3.650860107928139,-0.1703097995565345,3306664000000,
-7.466042705094964,5.114220304601776,-0.1723936152969035,3306670000000,
-8.90888016083739,6.331152126258156,-0.17405912876193713,3306675000000,
-6.07263870302762,3.7072139417879395,-0.17550915011803725,3306680000000,
-8.900015596366938,6.345957193995858,-0.17716284364094081,3306685000000,
-6.02106261372809,4.029925954368882,-0.17842927848503656,3306690000000,
-8.983952979967944,6.0131962799587795,-0.18004289559582337,3306695000000,
-5.981062610592102,4.020842732367175,-0.18179465620517704,3306700000000,
-8.991733457891609,5.935789252839746,-0.18355790940180894,3306705000000,
-6.048467920708508,4.003239271111238,-0.18476839914499713,3306710000000,
-9.034222818161139,5.955874343913522,-0.18661288145663107,3306715000000,
-6.027922187313329,3.974416503718665,-0.18818377157719118,3306720000000,
-9.010654591515154,5.92265534502454,-0.1903046013854633,3306725000000,
-6.0306823119741795,3.965037367481317,-0.19136152276462665,3306730000000,
-9.056245486208029,5.888822010916956,-0.19315337499416388,3306735000000,
-6.747274165823531,3.31057960270146,-0.1945861488104371,3306740000000,
-7.969807831754481,6.238442818964724,-0.19513626551349086,3306745000000,
-7.08424668794187,3.5829908030708406,-0.19639851055382315,3306750000000,
-8.049703033981215,6.236702277799764,-0.1973693183109116,3306755000000,
-7.103452426649392,3.572075869284207,-0.1985679156899826,3306760000000,
-8.12821285540617,6.202207573038688,-0.19925488715009826,3306765000000,
-7.0003505551785175,3.5480803262677165,-0.20056071929327007,3306770000000,
-7.479168346044355,4.821267751640469,-0.20287979579284504,3306777000000,
-7.4554364384331455,4.986897387804959,-0.20361452755010293,3306782000000,
-8.692512021672798,6.121792744297357,-0.20539922055587903,3306787000000,
-6.516860852093789,3.5669143214663177,-0.20630941019473145,3306792000000,
-8.71263874553942,6.085687758148761,-0.20835180172110718,3306797000000,
-6.475800819878774,3.548610620541818,-0.20952227137649232,3306802000000,
-8.841703409076231,6.04697908651231,-0.21083995420052556,3306807000000,
-6.4756839690465,3.5713352830677563,-0.21244943370761318,3306812000000,
-8.786458729917017,5.939991943120058,-0.21419714971430107,3306817000000,
-6.476656566236424,3.5686932727320784,-0.21533824544232702,3306822000000,
-8.918147731804007,5.95765587912127,-0.21690420617175404,3306827000000,
-6.489727245645384,3.5427234205827873,-0.2186989843326602,3306832000000,
-8.331266709480651,5.355916993248381,-0.22156322286496502,3306840000000,
-7.7227831608658795,4.721297400687749,-0.22284698913715195,3306845000000,
-6.493053541827051,3.513622188068101,-0.22446220134538647,3306850000000,
-8.906197836923981,5.886002501576956,-0.22617734494932742,3306855000000,
-6.49642482747605,3.4739063905496876,-0.2278243803187561,3306860000000,
-8.88920812380568,5.816042587185729,-0.2290509147071218,3306865000000,
-6.4998788091696005,3.519095646866874,-0.2303589724036145,3306870000000,
-8.944294898092563,5.825102433203886,-0.2321033022265294,3306875000000,
-6.845330165256149,3.731745019866081,-0.23417127366104531,3306881000000,
-7.707652517529312,4.636364620178249,-0.23529989011378888,3306886000000,
-8.995472044942426,5.775728901410817,-0.23711942107317593,3306891000000,
-6.504513278976338,3.427190467543073,-0.23876753334291945,3306896000000,
-8.931188228464494,5.7190373679989905,-0.2405962089911619,3306901000000,
-6.546471812325684,3.4066900647531324,-0.24180046059397278,3306906000000,
-7.793921167300178,4.561814860343829,-0.24464116417430973,3306913000000,
-9.83882404681696,6.426447099016003,-0.2453843091745492,3306918000000,
-7.795321999835974,4.507694134418847,-0.247481911654056,3306923000000,
-6.537282124608487,3.386698549160205,-0.24877632645029812,3306928000000,
-9.023048328831123,5.606706875120866,-0.25076748950712313,3306933000000,
-6.578245687451875,3.3486925779809136,-0.25260863266909345,3306938000000,
-9.05382939649163,5.622550864379895,-0.25428972374770026,3306943000000,
-6.570239104646314,3.3335455866511077,-0.25616578010272395,3306948000000,
-9.043106608544036,5.553515320708722,-0.2577287150158625,3306953000000,
-6.582968258902329,3.298686918900584,-0.2595696214504186,3306958000000,
-9.062590568166494,5.540623038587635,-0.26167741982173087,3306963000000,
-6.581525387174659,3.3130940139857055,-0.2630132688895639,3306968000000,
-9.100235957550886,5.492263435026399,-0.2646437017833561,3306973000000,
-6.5798034318767336,3.288112868786436,-0.2665134278668459,3306978000000,
-7.848802069146387,4.406567966648817,-0.2681984093727842,3306983000000,
-7.864030960648438,4.365052115611036,-0.2696346687191873,3306988000000,
-9.106210823251812,5.432827035269842,-0.2717725642433133,3306993000000,
-6.6034486196767475,3.253434303503304,-0.2731764004995052,3306998000000,
-9.1308592748977,5.407014169963198,-0.2751622229523351,3307003000000,
-6.601602398228741,3.234177118594548,-0.2767276742677144,3307008000000,
-9.166831703987123,5.358090009261608,-0.27901490333471257,3307013000000,
-6.632420127158735,3.191568711758564,-0.2800638690987241,3307018000000,
-9.16144436744994,5.385774324589481,-0.28221312788555725,3307023000000,
-6.643959446028122,3.200966456621363,-0.2839727091124849,3307028000000,
-9.206890022061634,5.343487640872382,-0.2858301551496931,3307033000000,
-6.653593989910595,3.1441280880771267,-0.28702498758594797,3307038000000,
-7.930465713174887,4.2077994497941225,-0.290343486271918,3307045000000,
-7.944980124063658,4.1884011065803675,-0.2916501558140459,3307050000000,
-9.27154035160001,5.230705455513053,-0.2936643206171881,3307055000000,
-6.658777737302533,3.120276932879798,-0.2954811091438841,3307060000000,
-9.292135647800867,5.164099446244016,-0.2973654803629161,3307065000000,
-6.684725158677593,3.085926129168116,-0.2992604712604615,3307070000000,
-9.292149210590575,5.177079158201537,-0.30165090847098214,3307075000000,
-6.68785632195515,3.020147053275666,-0.3031190096020075,3307080000000,
-9.274542355734347,5.110770063083291,-0.30531402703453286,3307085000000,
-6.671175392877507,3.075121080986817,-0.30633749625523277,3307090000000,
-9.289976629891642,5.075503253388248,-0.3085420498815169,3307095000000,
-6.73408547502707,3.0381796339870615,-0.3105376365309188,3307100000000,
-9.277467882115623,5.034363637798366,-0.3123328994527722,3307105000000,
-6.6875724087596184,2.9839598056377303,-0.3137992327089803,3307110000000,
-9.347494707056832,5.005384297201174,-0.3165855861433066,3307115000000,
-6.734666201682227,2.9851733942787355,-0.318074805353617,3307120000000,
-8.990712718594908,4.664845519110684,-0.32081680148451525,3307126000000,
-8.02965122675336,3.9229280056022016,-0.3221586235035313,3307131000000,
-6.6964110209630805,2.9261318837285883,-0.32408558261268383,3307136000000,
-9.394927938688788,4.885874127765964,-0.32640895943492765,3307141000000,
-6.739597466539257,2.9037568660386186,-0.3280175841027007,3307146000000,
-9.431454650512949,4.849638655719693,-0.3302967200741509,3307151000000,
-6.7168795666669885,2.9090751643497943,-0.33226985838587547,3307156000000,
-9.438949395758591,4.790471496873127,-0.33485755033564313,3307161000000,
-6.753586306003159,2.884175908136606,-0.3363462885101656,3307166000000,
-9.47015512963743,4.76658803827889,-0.3387399689772181,3307171000000,
-6.767214666082781,2.8648857874835834,-0.3402008730691423,3307176000000,
-9.468821037972011,4.701960607497401,-0.34273697128140956,3307181000000,
-6.739306639496328,2.8292068486478366,-0.34447742617645843,3307186000000,
-10.432427218032812,5.300946469553069,-0.34611553928926164,3307192000000,
-8.153914474760969,3.714008833245402,-0.3490597052137859,3307197000000,
-6.749433764762725,2.8074456970934896,-0.35052547602338485,3307202000000,
-9.557959028992325,4.633285206149785,-0.35301573829345295,3307207000000,
-6.770530649017849,2.768131666616326,-0.3549328502995165,3307212000000,
-9.533812301318434,4.566333088636951,-0.3573592634978303,3307217000000,
-6.752992103021926,2.7698051951152047,-0.3592643612000162,3307222000000,
-9.567537172090189,4.509383225157776,-0.36113987463658015,3307227000000,
-6.804923134208433,2.7419696045537756,-0.3631229782323825,3307232000000,
-9.603154782009014,4.46224680585594,-0.3657859625293194,3307237000000,
-6.79587465273941,2.6955074804734442,-0.3677656643489626,3307242000000,
-9.663815900412445,4.420635138316535,-0.36983377165349185,3307247000000,
-6.781158284683296,2.6639581885163652,-0.3716736744269521,3307252000000,
-9.237956320988346,4.116064614004858,-0.375243816058718,3307258000000,
-8.2079730952683,3.496732168419848,-0.3770687612629457,3307263000000,
-6.804938253727436,2.599452768929987,-0.3791376475236128,3307268000000,
-9.672629903847273,4.2699495137984425,-0.3814620873272732,3307273000000,
-6.8343776942956795,2.6039314925640458,-0.3833108500710137,3307278000000,
-9.703526048992932,4.199995751917773,-0.3859942549034454,3307283000000,
-6.798116867267632,2.582518258455094,-0.38825655345918847,3307288000000,
-9.749053474009761,4.208053892552869,-0.3908211109318769,3307293000000,
-6.818285215824967,2.55857092614059,-0.392052633733009,3307298000000,
-9.77636036862995,4.111094696591524,-0.39504543847063955,3307303000000,
-6.807652615759479,2.532875528024562,-0.3966655078198099,3307308000000,
-9.788377475190629,4.0963568397118415,-0.3994251010393941,3307313000000,
-6.7937733845221535,2.47667308977841,-0.4007034916022554,3307318000000,
-8.50553728978612,-0.4985177119989217,-0.4016870158642876,3307324000000,
-5.396761091051554,1.7726437222006026,-0.4008579114024256,3307329000000,
-11.567557063443138,9.247100032598311,-0.4006141446682025,3307334000000,
-7.2043403563495305,3.534572724473461,-0.40130216137873753,3307339000000,
-9.638574362073246,3.621038366419764,-0.40197338428141766,3307344000000,
-6.904492566781289,2.5937174799902247,-0.4024003883080253,3307349000000,
-8.345472936227203,3.0963867013993616,-0.40320534134130986,3307354000000,
-8.3738167832829,3.0742741004240983,-0.4039233637192669,3307359000000,
-10.146231559010468,3.7264604723857704,-0.4049179497836351,3307364000000,
-6.7847262910007675,2.440732785041725,-0.40593757220635174,3307369000000,
-10.056811470393729,3.6152138639822806,-0.4070163655028899,3307374000000,
-6.751322054547273,2.415015123432607,-0.407682938444733,3307379000000,
-10.09518046033069,3.6020477128131962,-0.4090921811177458,3307384000000,
-6.73013792390383,2.3818486729578257,-0.4101232622397229,3307389000000,
-8.432114730371502,2.9418860873023096,-0.4120358867834504,3307396000000,
-8.40074262795676,2.922550174376553,-0.41281081235474953,3307401000000,
-10.109962510890849,3.5163404602881445,-0.41424256967338174,3307406000000,
-6.744193446939635,2.3135771219250176,-0.4150117686778448,3307411000000,
-10.101154285128661,3.4290756860641736,-0.416681745659039,3307416000000,
-6.770609032417746,2.2841257800721304,-0.41765415900183445,3307421000000,
-10.1495261357775,3.3951459583164176,-0.41921149749995756,3307426000000,
-6.758696134463388,2.230661867082426,-0.42010092481193584,3307431000000,
-10.11099940142566,3.335942074938428,-0.42173604174294277,3307436000000,
-6.766751424232544,2.224224124773759,-0.4228033226307636,3307441000000,
-10.145570020394912,3.3011413409598247,-0.42445843811082384,3307446000000,
-7.273308451085034,2.304184913322622,-0.42642383274017215,3307452000000,
-8.470807016126782,2.6871396069051916,-0.42728872154242226,3307457000000,
-8.472186147479551,2.669420181236121,-0.42994261365789077,3307464000000,
-8.496874295239751,2.6342261245867182,-0.43112262230885084,3307469000000,
-10.199507110887042,3.1666526962100168,-0.43278410125112343,3307474000000,
-8.4538743435743,2.604487846657204,-0.43501273418520525,3307479000000,
-8.459982070023978,2.6011878969784457,-0.43621139964150063,3307484000000,
-6.805156758384027,2.061006649919839,-0.4369968069316652,3307489000000,
-10.186512254056765,3.059625678279046,-0.43932468239281175,3307494000000,
-6.80920554101213,2.0457347837253295,-0.44057861473416493,3307499000000,
-10.200763843158315,3.0183993597871908,-0.44307353046667214,3307504000000,
-6.841809913233286,1.9869340480506081,-0.444191955943411,3307509000000,
-10.18888936367426,2.9602358523588594,-0.44607909486538944,3307514000000,
-6.83692869538414,1.9289520282644843,-0.4473816016992222,3307519000000,
-10.175327535475184,2.88623674591041,-0.4495208494368164,3307524000000,
-6.806703139793067,1.9445948634169745,-0.4511997278421365,3307529000000,
-8.50427323721959,2.344526290732053,-0.4539069363685465,3307537000000,
-10.245452108264974,2.804472793125292,-0.45597999288046576,3307542000000,
-6.868572191467211,1.834530562677254,-0.4574511491109847,3307547000000,
-10.207496329764098,2.734707597990401,-0.4592416694789651,3307552000000,
-6.84747218412202,1.8352566377540502,-0.4606034192963506,3307557000000,
-10.2262698054459,2.676979913300032,-0.46339383351166386,3307562000000,
-6.84877826014412,1.8019568511917687,-0.46445181763734206,3307567000000,
-10.24880186080275,2.6414041932696533,-0.46670385034977285,3307572000000,
-6.867150853900584,1.7452627098424724,-0.46837477248358045,3307577000000,
-8.545730048951903,2.1547518525292166,-0.4703179526987222,3307582000000,
-8.558311587674037,2.12580902160818,-0.4719362228111678,3307587000000,
-10.272780065311512,2.481138250866683,-0.4745542413641796,3307592000000,
-6.86994739455459,1.666514978740358,-0.4759564672177887,3307597000000,
-10.29273206420495,2.455727726344125,-0.47793766151339395,3307602000000,
-8.555519455136277,2.045074812207494,-0.4806425053252029,3307607000000,
-8.56939241163227,1.9757164417971265,-0.4824113987428226,3307612000000,
-6.88640662052053,1.6067422551023371,-0.4836335891375699,3307617000000,
-10.288186949668503,2.3301759554462227,-0.48576457336505846,3307622000000,
-6.884151191889397,1.563332324945451,-0.4875377371341632,3307627000000,
-10.270584250139676,2.302124672659569,-0.4903119990055424,3307632000000,
-6.898374069148211,1.5005207336510158,-0.4919868643645514,3307637000000,
-10.29549935518687,2.2265320117630556,-0.4945770741974662,3307642000000,
-6.8778062303562955,1.4505394712297237,-0.4959660204010087,3307647000000,
-10.276949335894578,2.176052929900094,-0.49791678208900675,3307652000000,
-6.888810725231111,1.423702377514606,-0.5001934079430443,3307657000000,
-10.31262359497143,2.110742531162408,-0.5024433398184506,3307662000000,
-6.874290248139061,1.3967620634692923,-0.5038988053023737,3307667000000,
-8.58640580416761,1.7203404244148346,-0.50730352863515,3307674000000,
-8.610133600038738,1.7055759840523759,-0.5090281379981514,3307679000000,
-10.317634784369048,1.9946146667309301,-0.5118020161845227,3307684000000,
-6.910335538104162,1.2800895245674855,-0.5128323019899882,3307689000000,
-10.294185728995936,1.9329968848689003,-0.5156376942925752,3307694000000,
-6.915760158888597,1.2214433881257143,-0.5173889390787736,3307699000000,
-10.302123990887244,1.8450480124860018,-0.520245318299066,3307704000000,
-6.918569495858266,1.2432230313313433,-0.5220017006366343,3307709000000,
-10.293779625805852,1.7597647591125525,-0.5244582717054125,3307714000000,
-6.921812026395463,1.1811104799548968,-0.5259163625075791,3307719000000,
-10.27263843153049,1.7385950158201153,-0.528644008357826,3307724000000,
-6.881785978535638,1.1632841264951934,-0.5307854599778093,3307729000000,
-10.31674604174126,1.6671357963551952,-0.5333250203608952,3307734000000,
-6.895515410928771,1.1005287715717904,-0.5352614557876645,3307739000000,
-8.60128961225353,1.344286168570199,-0.5362199927847973,3307744000000,
-8.590755833785364,1.329163591040979,-0.5399984615583414,3307749000000,
-10.306929398013535,1.560251665933862,-0.5423138727638389,3307754000000,
-6.906054990999589,1.0060378138183483,-0.5442194451694906,3307759000000,
-10.309744289296868,1.4969973820131104,-0.5466353613205032,3307764000000,
-6.900551848839542,0.9782461196470414,-0.5485383045959406,3307769000000,
-10.322193335058538,1.4273513960930815,-0.5512065105735646,3307774000000,
-6.8849873423266885,0.8949729854175019,-0.5527250868061478,3307779000000,
-10.335129598052172,1.3660385541751086,-0.5554484793641953,3307784000000,
-6.9125120863501035,0.8787926407639564,-0.5573979653423393,3307789000000,
-10.316404920755707,1.263342356108348,-0.5600938825863124,3307794000000,
-6.87398390331719,0.852034667062831,-0.5619835075135498,3307799000000,
-10.299252803625876,1.207608642417327,-0.5645666470178832,3307804000000,
-6.892435593171582,0.7772527928873049,-0.566910584355836,3307809000000,
-10.31465143111854,1.1638145062744876,-0.569480916689914,3307814000000,
-8.60488309101618,0.9161582964293632,-0.5722863551668048,3307819000000,
-8.599415543213803,0.8955634195349996,-0.5740999868913,3307824000000,
-8.565011242244303,0.8398564636029857,-0.5773273402976747,3307829000000,
-8.609090011427854,0.8352207960007395,-0.5792664761363956,3307834000000,
-6.882807517205814,0.6648153581996864,-0.5809895466509146,3307839000000,
-10.29945350487585,0.9497364431413773,-0.5843055858053101,3307844000000,
-6.928574068224172,0.6005044588140455,-0.5864793086868741,3307849000000,
-10.288710574945949,0.903655288417485,-0.589117361175901,3307854000000,
-6.882942832404357,0.5399329906558219,-0.5907239850705919,3307859000000,
-10.294722717131082,0.786717688437434,-0.5937343246337156,3307864000000,
-6.874601606536659,0.5006221080244665,-0.5957041671516856,3307869000000,
-10.303085070642474,0.7182746307448857,-0.5987031571595332,3307874000000,
-6.842524649034757,0.4534067534258934,-0.6002104398114051,3307879000000,
-8.56690915967592,0.5523972883435072,-0.6015711853416815,3307884000000,
-8.58527945938229,0.5127537184351144,-0.6053650490995337,3307889000000,
-10.275685837792958,0.587779181337859,-0.6080229674248746,3307894000000,
-6.883891786762805,0.34506265362526073,-0.6102599881290055,3307899000000,
-10.264037827055656,0.5306317210181634,-0.6127813579209644,3307904000000,
-6.8518865690698885,0.30970339769473415,-0.6148349757518833,3307909000000,
-10.262788574349695,0.46211623849073996,-0.6175658785873174,3307914000000,
-6.854916819315159,0.2714437864680874,-0.6197047518832998,3307919000000,
-10.232443266210492,0.38689262215216075,-0.6227140901132441,3307924000000,
-6.874515549083704,0.21229218601453,-0.6254857714792851,3307929000000,
-10.243448883411917,0.32988790422412323,-0.6283171615294546,3307934000000,
-6.815025808633945,0.18764366277785208,-0.6302868396043091,3307939000000,
-10.23368041754294,0.2353844005491525,-0.6335801850229851,3307944000000,
-6.858891187550252,0.11482065280038609,-0.6356523621474857,3307949000000,
-9.719940821508867,0.14650094318374055,-0.6396465834220361,3307955000000,
-8.529153778027876,0.09305728009557944,-0.6419530971694065,3307960000000,
-6.806941318397829,0.03745744994642389,-0.6437737019856635,3307965000000,
-10.184943197219077,0.025303181981423905,-0.646833640689428,3307970000000,
-6.791992740720538,0.012472890442808277,-0.6490692373753799,3307975000000,
-25.863322539116975,-0.14258771941693116,-0.641177460643064,3307980000000,
-11.62924990636412,-0.06170388499729863,-0.6361715214241892,3307985000000,
-6.812053833125656,-0.06442459537372322,-0.6333052042429287,3307990000000,
-8.815713451466483,-0.1213088047931191,-0.6298059334887062,3307995000000,
-6.81850766399984,-0.11525143933716081,-0.6266847068837111,3308000000000,
-8.46399078676861,-0.19751575553629114,-0.6242596450159782,3308005000000,
-9.459874616686308,-0.21454141399376286,-0.619677421857726,3308010000000,
-9.026227860159445,-0.2614806100203782,-0.6159981422880156,3308015000000,
-6.784272392742591,-0.18393578640104782,-0.6136548185213183,3308020000000,
-11.161013728275865,-0.43622951912328334,-0.6097003678267543,3308025000000,
-8.40298775656408,-0.34301062522571574,-0.6043319753464078,3308033000000,
-6.732334970260065,-0.3066720881200998,-0.6019380676923267,3308038000000,
-9.22783802968758,-0.4631857903224843,-0.5978628965636653,3308043000000,
-6.781711535217935,-0.3670520682939805,-0.5958494551103413,3308048000000,
-10.88627178353654,-0.5872083655724198,-0.5913418047093411,3308053000000,
-6.748249516538758,-0.40071496677371565,-0.5886449547962453,3308058000000,
-9.328788487851215,-0.5731301151072931,-0.5853867650504123,3308063000000,
-6.749452462438393,-0.43027072821296963,-0.5825654714149804,3308068000000,
-10.746782748371908,-0.7420570098839074,-0.5783395017805582,3308073000000,
-6.7067785462676275,-0.4750706742102616,-0.5756248355737698,3308078000000,
-9.427626387771669,-0.7171486694572503,-0.5722716919681327,3308083000000,
-6.728766913525597,-0.5605794914249895,-0.5698249905712383,3308088000000,
-10.62743114732902,-0.8952344642379622,-0.5656822792370112,3308093000000,
-4.627476734736254,-0.39665628555977955,-0.5643734915566676,3308099000000,
-8.360115822501774,-0.7692744975609453,-0.5595191706513574,3308104000000,
-10.541287976772606,-0.9917804759456679,-0.555595726980006,3308109000000,
-6.677287988243658,-0.651872672645816,-0.5530510572503514,3308114000000,
-9.528530562977831,-0.952267023328481,-0.5495009666729367,3308119000000,
-6.690321788129223,-0.6980274151189536,-0.5468356511646582,3308124000000,
-8.312558943023143,-0.8831255672054872,-0.5445625603471527,3308129000000,
-8.628044374367116,-0.930811082009636,-0.5403315249458491,3308134000000,
-9.555483531766065,-1.0783099234846192,-0.5372013234685513,3308139000000,
-6.669198181160618,-0.7426977516140079,-0.5342745862970155,3308144000000,
-10.271336636617768,-1.2151966709394122,-0.5306351174236924,3308149000000,
-6.628881834618766,-0.802660203370694,-0.5283616610811643,3308154000000,
-9.592964200360445,-1.1807086539474965,-0.5253645697386587,3308159000000,
-6.639913905242472,-0.8459719482252327,-0.5226459133374558,3308164000000,
-8.258349211196432,-1.1101889319930323,-0.517818644371943,3308171000000,
-8.267294292494679,-1.1139247245576054,-0.5152166291433298,3308176000000,
-10.152573266774793,-1.4162876834066829,-0.5114128312381276,3308181000000,
-6.593941141152458,-0.9245390976062378,-0.5091452197948607,3308186000000,
-9.593491748407608,-1.4071614428097685,-0.5059904937352351,3308191000000,
-6.59714383694413,-0.9764236485358685,-0.5031556036688388,3308196000000,
-10.080275122165183,-1.4984441204503482,-0.49934552296736073,3308201000000,
-6.586481704203278,-1.022359333268234,-0.49763128124772343,3308206000000,
-9.616186136086602,-1.521019332127198,-0.49405126711839137,3308211000000,
-6.592376255645067,-1.0580897160223837,-0.4917113014899833,3308216000000,
-10.007516072654727,-1.6524582928748064,-0.4882874319058946,3308221000000,
-7.975614319917852,-1.3276952730036293,-0.48525666214418123,3308226000000,
-8.162044050775217,-1.3698894746686923,-0.48279035756825683,3308231000000,
-6.525231067557639,-1.1646825266267689,-0.47998411387761963,3308236000000,
-8.276134457294594,-1.4453584319539001,-0.4768781425353755,3308241000000,
-8.138573343788364,-1.4301087539820239,-0.47397104503731885,3308246000000,
-9.56244738545476,-1.724217226142011,-0.4709299165030264,3308251000000,
-6.4814025613800155,-1.2243710260722895,-0.46887243175595744,3308256000000,
-9.864770918843844,-1.7947835499072349,-0.46522091182171205,3308261000000,
-6.472151212454357,-1.2427594075572437,-0.4631122973750858,3308266000000,
-9.568614460933329,-1.8412342621102562,-0.4596639634697675,3308271000000,
-6.473752962096908,-1.237998691682282,-0.4575613333217303,3308276000000,
-9.77222160663321,-1.9508478687597353,-0.4542224544600943,3308281000000,
-6.438754783380558,-1.3020936527477318,-0.4522724123940545,3308286000000,
-9.545341703824699,-1.9554292758329153,-0.44852476130462315,3308291000000,
-6.435697919495146,-1.3361984799054762,-0.4464500944516005,3308296000000,
-9.732687192475403,-2.0328569181450993,-0.44285237851273024,3308301000000,
-6.432747515710665,-1.3489451620721966,-0.4409530967441896,3308306000000,
-9.531024889014004,-2.0569181395683986,-0.43806963181790365,3308312000000,
-8.078188983168996,-1.7609030482305326,-0.4343593551649474,3308317000000,
-6.387371952649972,-1.4304008780395696,-0.4319631359535331,3308322000000,
-9.495512621859449,-2.1164280099894146,-0.42865535094353446,3308327000000,
-6.392494173093343,-1.442665796525599,-0.426907445879725,3308332000000,
-9.656535253462403,-2.198272378768054,-0.4233186857813121,3308337000000,
-6.32251522997403,-1.4667291370988322,-0.4210447717019518,3308342000000,
-9.470677205295198,-2.200553540855933,-0.4181580814569198,3308347000000,
-6.33987466814994,-1.4854876455140142,-0.4159123816630655,3308352000000,
-9.556153891331116,-2.29386086716261,-0.4126621981712487,3308357000000,
-6.349288051737722,-1.5595148149852953,-0.41050949986474244,3308362000000,
-9.44505242396078,-2.267207869582039,-0.40763614622867594,3308367000000,
-6.3506150206138745,-1.5504414561860924,-0.40545477269115904,3308372000000,
-9.4952877799564,-2.329547774692205,-0.402351271577918,3308377000000,
-6.318630979312818,-1.5630921012798555,-0.4003411966246848,3308382000000,
-9.420379702670896,-2.364066063119028,-0.39710733989843233,3308387000000,
-6.296160752713896,-1.6037632936330173,-0.395409104980062,3308392000000,
-9.45449318753642,-2.417481111538118,-0.3923014189298996,3308397000000,
-6.292274609541799,-1.657427541607879,-0.3897981406219227,3308402000000,
-9.360967769643638,-2.4695658390055777,-0.38715434369422747,3308407000000,
-6.264462200813783,-1.6572299043414536,-0.38521064806273597,3308412000000,
-9.411209414722713,-2.5184853733331676,-0.38195009903209454,3308417000000,
-6.269874540106063,-1.6910490884119558,-0.3802453911189017,3308422000000,
-9.313114992968424,-2.5294607798475215,-0.3773990073790445,3308427000000,
-7.784069376108768,-2.1282223339735395,-0.37519439692065465,3308432000000,
-7.814790986407273,-2.1352065487070617,-0.3721163517015795,3308437000000,
-6.241818546379501,-1.7460088467276285,-0.36998203823691417,3308442000000,
-9.281767627804978,-2.5744646733329732,-0.3669664918193265,3308447000000,
-6.184941561470779,-1.7282759957929832,-0.3650041983988018,3308452000000,
-9.321567666309164,-2.6213297490676495,-0.361766614338102,3308457000000,
-6.20832842521141,-1.7829834682348307,-0.3596395945885281,3308462000000,
-9.214685103473059,-2.6516305898361425,-0.35688051275246985,3308467000000,
-6.154165134744675,-1.7960522817186195,-0.35492035572460434,3308472000000,
-9.288526975938591,-2.697255965298644,-0.35189847887681525,3308477000000,
-6.18099010437949,-1.825871719187399,-0.3502136934005428,3308482000000,
-9.182769418578843,-2.7418044934172205,-0.347470764323477,3308487000000,
-6.147647366456666,-1.8349118315830177,-0.3453851251971884,3308492000000,
-9.198297307253066,-2.794813339308624,-0.34279366604042805,3308497000000,
-6.121611157306618,-1.8259628184302665,-0.3405123866455379,3308502000000,
-8.719199065393683,-2.706181829836608,-0.3371883434819938,3308509000000,
-6.161138952757417,-1.9182419857261952,-0.3352166117773156,3308514000000,
-9.109398062163994,-2.822130917309305,-0.3323757400072501,3308519000000,
-7.6798307073996765,-2.4119430308323815,-0.3313105843486052,3308524000000,
-7.6164640503420875,-2.3893423914211227,-0.3272879903327042,3308529000000,
-6.082004334010718,-1.9112904677207014,-0.3255242219835889,3308534000000,
-9.094525583196187,-2.889659617639767,-0.3223168039491956,3308539000000,
-6.0407378896290655,-1.9197729627265685,-0.32116571443777375,3308544000000,
-9.066117560940015,-2.9526819963807953,-0.317715657396963,3308549000000,
-6.02559284988963,-1.9762236064618688,-0.31599645198849874,3308554000000,
-8.994258119003785,-2.9431390006337077,-0.3134555455113594,3308559000000,
-6.0280236997726915,-2.0118269851814183,-0.31130856323787814,3308564000000,
-9.021771962114263,-2.983483554733658,-0.3086219415175147,3308569000000,
-6.045147829779369,-2.020403262052336,-0.3070488588004162,3308574000000,
-8.986533535884414,-2.982489118280677,-0.3040658218464324,3308579000000,
-6.009864802689104,-2.02510410399565,-0.3020223792413448,3308584000000,
-8.944678942680532,-3.0232297777278148,-0.29944808222824226,3308589000000,
-5.988298779235398,-2.056321905736273,-0.29783171995391666,3308594000000,
-8.916796330747598,-3.045411796450584,-0.29520746877483894,3308599000000,
-5.982081805177693,-2.05578174347789,-0.29337170860922057,3308604000000,
-8.922241535798282,-3.092249840584706,-0.29073158024354345,3308609000000,
-5.936693796819689,-2.0790531674010166,-0.28871459021258405,3308614000000,
-8.88024344199146,-3.1082668955030672,-0.28629034736254666,3308619000000,
-5.943405721987291,-2.108250281814774,-0.28430771484251477,3308624000000,
-8.850100553693368,-3.1597845671178484,-0.2816077686049841,3308629000000,
-5.894542414913445,-2.0893210744249564,-0.2799977406960822,3308634000000,
-8.827816419599639,-3.1623329480046114,-0.2771447382134038,3308639000000,
-5.914303090787651,-2.1356825590472006,-0.27587939837956726,3308644000000,
-8.846775546687693,-3.1650277435805796,-0.27287023951363537,3308649000000,
-5.88321949853152,-2.118605589134171,-0.2712924537047138,3308654000000,
-7.347674752282771,-2.6544785907972424,-0.26951906481475524,3308659000000,
-8.382074610597625,-3.0557799151548144,-0.2659460804496873,3308664000000,
-7.313692781480528,-2.6681319709075826,-0.2642686193460773,3308669000000,
-5.848834394873036,-2.146770905104788,-0.26265377769631204,3308674000000,
-8.716012093542359,-3.2306272414361037,-0.25986135880022215,3308679000000,
-5.808782783622105,-2.171018253944668,-0.25826933333619084,3308684000000,
-8.752757865112487,-3.2562683393253606,-0.2558964630062305,3308689000000,
-5.797769805740085,-2.1782019447742753,-0.2541797321647805,3308694000000,
-8.673961619493294,-3.28229456134586,-0.2516777895852996,3308699000000,
-5.815651240642128,-2.210333129877355,-0.2503965811255114,3308704000000,
-8.659012379402967,-3.3082310450937524,-0.2472994984498949,3308709000000,
-7.217792759040768,-2.7354299149581873,-0.2456844808192504,3308715000000,
-6.185229919357777,-2.3511274390611416,-0.24333366224124622,3308720000000,
-8.612092677167249,-3.3248993737371637,-0.24082650154034912,3308725000000,
-5.767905437165632,-2.208897443787093,-0.2391560188868356,3308730000000,
-8.635063658773358,-3.3266683677478674,-0.2368191744309306,3308735000000,
-4.7917047628771074,-1.8531993208980442,-0.2357574142311343,3308740000000,
-8.163276025252078,-3.195031169637105,-0.23260660577143064,3308745000000,
-5.707545954709905,-2.2419126120572526,-0.23121660318279486,3308750000000,
-8.544245458924696,-3.3341492019041072,-0.22838962748317182,3308755000000,
-5.712643330187667,-2.2329147322951837,-0.22685358547073778,3308760000000,
-8.531349694175082,-3.3743113857256497,-0.22426509252548113,3308765000000,
-5.684314358001204,-2.283229084798797,-0.22289946293715884,3308770000000,
-8.510491384084169,-3.350590392724286,-0.2202107101647417,3308775000000,
-5.669851528677281,-2.252150437171401,-0.2189623851857904,3308780000000,
-8.504934688007195,-3.4096565092714757,-0.21611864069120557,3308785000000,
-5.672931688904674,-2.291110972060619,-0.2147583706008346,3308790000000,
-8.456134629866751,-3.4005535917563594,-0.2120663342642201,3308795000000,
-5.630027058680046,-2.280910023880779,-0.2107694270182473,3308800000000,
-8.449013296212662,-3.425542605061601,-0.20858856524251176,3308805000000,
-5.64127463560714,-2.270869476164237,-0.20700934533310517,3308810000000,
-9.32320739854198,-3.7980378439297353,-0.20512796606559536,3308815000000,
-5.990020015779427,-2.4575667565855666,-0.20299147893588657,3308820000000,
-8.363157320897457,-3.436215733350893,-0.20056637266971886,3308825000000,
-5.573659839513849,-2.274287928381674,-0.1989868487203688,3308830000000,
-8.328055044467286,-3.440002274655162,-0.19680964572744555,3308835000000,
-5.550114819941337,-2.3240230666547212,-0.1951629452437346,3308840000000,
-8.293207696566917,-3.462952972264045,-0.1927547835897783,3308845000000,
-5.552276846083934,-2.311842848854638,-0.1911661932681479,3308850000000,
-8.313391453666684,-3.4594468378504555,-0.18865600121273177,3308855000000,
-5.5553393750567315,-2.307668008508016,-0.18751395501179105,3308860000000,
-8.284683524074113,-3.4584280240682306,-0.18520286159453686,3308865000000,
-5.530007438025269,-2.319118697744276,-0.18332082939643918,3308870000000,
-8.242636243445954,-3.461057715918008,-0.1812957585738561,3308875000000,
-5.5218820750727025,-2.3189909103058355,-0.17993407396908712,3308880000000,
-6.8639034573535,-2.89559814276752,-0.17809425090144948,3308885000000,
-6.847921206205358,-2.9151743817574545,-0.1760629026097338,3308890000000,
-8.168273764310566,-3.438107918279895,-0.17390618422660878,3308895000000,
-6.828866726905187,-2.9075711577859895,-0.17154654723217866,3308900000000,
-6.801674870674803,-2.867630383786687,-0.17012172964158134,3308905000000,
-5.470799442611351,-2.332644602168128,-0.16865215080945986,3308910000000,
-8.151669790875806,-3.4653336354243276,-0.16590454647489558,3308915000000,
-5.444809315157684,-2.3074817888677543,-0.1648595378279566,3308920000000,
-8.102656827636608,-3.459379863560966,-0.16297747236963853,3308925000000,
-5.445247843168295,-2.2923327240659055,-0.16150150990290052,3308930000000,
-8.094475169308954,-3.466085963290221,-0.1586134154928568,3308935000000,
-5.432091497171969,-2.3197594187331525,-0.1575742447572235,3308940000000,
-8.060886147690637,-3.491402192533588,-0.15545803046672793,3308945000000,
-5.3475287517322485,-2.3237333821136867,-0.15376005031500145,3308950000000,
-8.035390509426867,-3.4479858456026453,-0.15139141814840526,3308955000000,
-5.366266808008235,-2.3171844993802213,-0.15023698541845026,3308960000000,
-8.023605470506565,-3.4790889242873844,-0.1479637325922547,3308965000000,
-5.34532889901395,-2.335004673497579,-0.14723214197815732,3308970000000,
-7.983091864502197,-3.4963362829573525,-0.1448484930228365,3308975000000,
-5.344212475160746,-2.327673981752046,-0.1432242448820094,3308980000000,
-7.934804045970857,-3.50254388073089,-0.14109676070741645,3308985000000,
-5.296932458166518,-2.29835248468809,-0.13940163298715602,3308990000000,
-7.926348395054502,-3.4379330257637806,-0.1370918235515872,3308995000000,
-5.313849729139004,-2.3122490536532445,-0.13600291266505304,3309000000000,
-7.913990830406995,-3.4842025830800165,-0.13374134783990543,3309005000000,
-5.276643130871857,-2.306410642839437,-0.1327059624135599,3309010000000,
-7.875866109989823,-3.4708958912911534,-0.130257343675502,3309015000000,
-5.235176791044838,-2.3146717176411515,-0.12914476669952243,3309020000000,
-7.8609122296224605,-3.43396304136762,-0.12668340626241625,3309025000000,
-6.520108951392212,-2.861575255721017,-0.12371684363294642,3309032000000,
-6.509180109688246,-2.8738640432802542,-0.12259427574040947,3309037000000,
-5.2219849671528324,-2.3011228553675402,-0.1211270175306369,3309042000000,
-7.797307731189714,-3.4465050691949655,-0.11940691238158768,3309047000000,
-5.221582476990479,-2.3145390569591604,-0.11777414762806979,3309052000000,
-7.718433344762075,-3.4270203116398172,-0.11566359736876462,3309057000000,
-5.201117925895642,-2.2958266084121415,-0.11437354829266758,3309062000000,
-7.733205684038381,-3.4448454330388345,-0.11210465382320423,3309067000000,
-5.133308751112469,-2.2625171474796963,-0.11110736524933952,3309072000000,
-7.749860495093709,-3.4324499333975766,-0.10884725273098816,3309077000000,
-5.154557952308834,-2.2871646898164535,-0.10755848146702982,3309082000000,
-7.677382002806306,-3.396757633091517,-0.10565717345904066,3309087000000,
-5.146126821693727,-2.256720476809808,-0.10417471430236973,3309092000000,
-7.6397911632032685,-3.3781393258961616,-0.10230778728786691,3309097000000,
-5.457549868779051,-2.4203039727500264,-0.09994657245265967,3309104000000,
-7.616307144271476,-3.3677576122580875,-0.09794355360255622,3309109000000,
-5.078473364458685,-2.2636494946719283,-0.09641289228050215,3309114000000,
-7.594553175081501,-3.4007897503886073,-0.09452827114908435,3309119000000,
-5.06241577978808,-2.2333427736634723,-0.09332798221831826,3309124000000,
-7.558851881166898,-3.3538176684735546,-0.09093091460597362,3309129000000,
-5.043059570298777,-2.2327260374243383,-0.08985948923431811,3309134000000,
-7.535085116622994,-3.352663769727368,-0.08825960633242654,3309139000000,
-5.048026290402913,-2.2370147203188546,-0.08669252656759582,3309144000000,
-7.517945912438232,-3.329407279838606,-0.08452166489651156,3309149000000,
-4.171345141394786,-1.8430692916928404,-0.0842740145540094,3309154000000,
-7.1280683172782355,-3.1896829885481313,-0.08164077241323126,3309159000000,
-5.0147786321122645,-2.196752959279241,-0.08045608703030448,3309164000000,
-7.433039133150725,-3.3358537412919738,-0.07827793983375339,3309169000000,
-4.98921238868864,-2.1984114814057913,-0.07709858779418785,3309174000000,
-6.174560608482282,-2.7153518521574913,-0.07457964221016751,3309181000000,
-6.170641555215186,-2.7206584417366786,-0.07300072529975664,3309186000000,
-7.397186461862001,-3.256222399158858,-0.0710537348162477,3309191000000,
-4.957269309913874,-2.1297170365280413,-0.06994316500102263,3309196000000,
-7.374015155181315,-3.253043784876297,-0.06790339838673962,3309201000000,
-4.916122987357469,-2.16024959505387,-0.06706481270784291,3309206000000,
-7.337064598993367,-3.237071935885416,-0.06449463854383719,3309211000000,
-4.885791345465069,-2.148810817002674,-0.06322108539522107,3309216000000,
-6.069519271373962,-2.6391989760770356,-0.06178339462760584,3309221000000,
-6.0702095862812255,-2.6629754749153873,-0.060150988905015745,3309226000000,
-7.24610660776267,-3.178722486857164,-0.058262316113987404,3309231000000,
-4.8808821463305705,-2.14663764538116,-0.05693053781291437,3309236000000,
