acc_x, acc_y, angular_z, stamp, 
-0.0016353726387023926,-0.02409273386001587,-6.879265362328116e-11,1791552450547121675,
-0.012414097785949707,0.011853933334350586,-7.574000944047187e-11,1791552450577024577,
0.012689948081970215,-0.009666979312896729,-6.886444612547741e-11,1791552450607455213,
0.005432844161987305,-0.02571690082550049,-5.50031995814991e-11,1791552450639071051,
0.012470245361328125,-0.027428388595581055,-3.206150893112116e-11,1791552450666945233,
0.0015351176261901855,0.012155354022979736,-3.21813040311599e-12,1791552450696843339,
-0.005709946155548096,0.033740878105163574,3.0219191458190875e-11,1791552450726767768,
-0.009524405002593994,0.0030416250228881836,-1.984662432329955e-06,1791552450756799715,
0.01380312442779541,-0.0024892091751098633,4.584676260805613e-11,1791552450786700263,
-0.0024362802505493164,0.009960711002349854,5.2709578479475636e-11,1791552450816744307,
-0.0042809247970581055,0.011597990989685059,4.229067408732808e-11,1791552450846970687,
0.01202481985092163,0.00609666109085083,2.1468478680380596e-11,1791552450879462284,
0.015646398067474365,-0.02634984254837036,8.745183436141528e-12,1791552450915499184,
0.019181907176971436,-0.0011271238327026367,7.262723065294773e-12,1791552450946448574,
-0.00773245096206665,0.0024811625480651855,6.604415950637759e-12,1791552450976669865,
-0.013131022453308105,0.004291653633117676,6.4233323485778665e-12,1791552451007871692,
-0.015004575252532959,-0.022789180278778076,1.0748832502589409e-12,1791552451039075690,
-0.004033446311950684,0.0058335065841674805,-2.2989165978563535e-12,1791552451066471293,
0.017614364624023438,0.014647960662841797,-6.67220607234805e-13,1791552451096329798,
0.01053696870803833,-0.012348294258117676,1.2545747396367108e-12,1791552451119469238,
-0.0038467049598693848,0.005457580089569092,2.535840248962595e-12,1791552451156042665,
-0.01461327075958252,0.014295518398284912,6.8936707327495224e-12,1791552451185998389,
-0.005470693111419678,-0.012719333171844482,2.233055481523843e-11,1791552451215907907,
0.010742127895355225,0.01053529977798462,3.896676834421618e-11,1791552451246919885,
0.010660707950592041,0.012398779392242432,1.8629558101997981e-06,1791552451278915098,
-0.0002759695053100586,0.00696873664855957,1.5279370270367547e-11,1791552451305822330,
0.0014153122901916504,-0.032363831996917725,-8.754308890227221e-12,1791552451335719952,
-0.014858901500701904,-0.008687615394592285,-9.511590403273068e-12,1791552451365641345,
0.011993706226348877,0.0023729801177978516,8.248175751586247e-12,1791552451395558345,
-0.007908165454864502,0.029452502727508545,2.810951991479468e-11,1791552451425554427,
-0.013315856456756592,-0.006359577178955078,3.516430870119599e-11,1791552451455593470,
-0.02767479419708252,0.008173346519470215,4.439153899980338e-11,1791552451487191492,
0.00852900743484497,0.02439582347869873,3.4394450074199885e-11,1791552451517499946,
0.015812695026397705,-0.020604312419891357,7.493169823391794e-12,1791552451545335978,
-0.005656301975250244,-0.002595245838165283,-1.1160009984576372e-11,1791552451574275698,
-0.0091591477394104,-0.0007287263870239258,-2.2137636800221852e-11,1791552451605255819,
-0.023382127285003662,-0.013282477855682373,-4.2837219018471436e-11,1791552451635133329,
-0.01230531930923462,0.010232090950012207,-7.869458039635482e-11,1791552451665144128,
0.003939330577850342,0.01212221384048462,1.9910051270193633e-06,1791552451695079236,
-0.0013580918312072754,-0.009412884712219238,-1.2537639439867684e-10,1791552451726929612,
0.0004596710205078125,0.02467930316925049,-1.1650149738631104e-10,1791552451756876838,
-0.012180924415588379,-0.0185202956199646,-9.302253961561037e-11,1791552451785003545,
-0.005153238773345947,0.0030132532119750977,-6.262957307000249e-11,1791552451814827382,
0.012816071510314941,-0.007735610008239746,-5.4392588840546003e-11,1791552451844826201,
-0.0033940672874450684,-0.005892455577850342,-4.534698499421639e-11,1791552451874740063,
-0.008957862854003906,-0.004072904586791992,-3.154485186904942e-11,1791552451904698344,
0.001792609691619873,-0.016471922397613525,-2.084521970628907e-11,1791552451935014767,
0.02318340539932251,0.017853081226348877,-7.637987903331588e-13,1791552451967662028,
0.0011425614356994629,-0.001758873462677002,9.560966217243402e-11,1791552452003523072,
-0.008090496063232422,-0.0016716718673706055,1.5102922602544883e-10,1791552452034463703,
0.027539968490600586,0.014500617980957031,2.0998930498714354e-10,1791552452064387687,
-0.012191832065582275,0.01094520092010498,2.6269769701229753e-10,1791552452095388263,
-0.010609567165374756,0.026942193508148193,-1.8733570850629096e-06,1791552452127200719,
-0.008951127529144287,0.0013827085494995117,-1.609462418543071e-06,1791552452164228641,
0.0035875439643859863,-0.009694159030914307,5.289715908328563e-11,1791552452194211245,
0.014394521713256836,-0.004578530788421631,-2.8747185413883682e-11,1791552452224124781,
-0.005317807197570801,-0.008490979671478271,-1.144761946694542e-10,1791552452255005484,
0.011034369468688965,0.005638062953948975,-1.709355128225121e-10,1791552452286539607,
0.0038788914680480957,0.017971575260162354,-2.939417075684891e-10,1791552452323938677,
0.012737393379211426,-0.009049832820892334,-2.2136782042794589e-10,1791552452353931518,
-0.0032386183738708496,0.0018728375434875488,-1.984695414012787e-06,1791552452383966265,
0.011357903480529785,-0.003400146961212158,-1.0586550442835414e-10,1791552452415624156,
-0.0155295729637146,0.00016421079635620117,-7.705614841335242e-11,1791552452447024392,
-0.0027921199798583984,0.0019832253456115723,-5.218160872694578e-11,1791552452473932303,
0.0009164214134216309,-0.019572079181671143,-2.2607648064001697e-11,1791552452503934267,
-0.007909595966339111,0.0002518296241760254,1.9803640864958523e-06,1791552452534032058,
0.013793349266052246,0.016325533390045166,1.5253503209855646e-11,1791552452564088409,
0.011851191520690918,0.017968833446502686,1.6248747668179318e-11,1791552452594013621,
0.008269011974334717,-0.001972794532775879,7.737641067451586e-12,1791552452623880769,
-0.004454612731933594,-0.02552884817123413,-2.5403242249135755e-11,1791552452655103522,
0.014996707439422607,0.04076927900314331,-7.934260140399934e-11,1791552452685628385,
0.009433329105377197,-0.022538185119628906,-2.4003763381914295e-10,1791552452723704423,
-0.008746981620788574,-0.006546139717102051,-2.7478589988180083e-10,1791552452753726742,
-0.007163703441619873,-0.01383066177368164,-3.722919390159366e-10,1791552452783801392,
-0.005509376525878906,-0.022793054580688477,-3.9365137112757056e-10,1791552452815015073,
0.0017355680465698242,0.0059836506843566895,-1.9838830724683844e-06,1791552452845065023,
0.0034760236740112305,-0.002947211265563965,-3.7048922678928383e-10,1791552452873569716,
-0.01108860969543457,0.0024914145469665527,-3.75287610272514e-10,1791552452903558066,
0.010245919227600098,-0.018976867198944092,-2.0354947813116355e-06,1791552452932846395,
-0.03125739097595215,-0.008059084415435791,-3.801580828675868e-10,1791552452962797663,
0.013702154159545898,-0.0188024640083313,-2.892161817269472e-10,1791552452992749320,
0.013787627220153809,0.009884417057037354,-2.597395117572737e-10,1791552453023346957,
-0.007647097110748291,0.004356682300567627,-1.8472534709615004e-06,1791552453055617553,
0.00497967004776001,-0.010074019432067871,-2.6849508687288965e-10,1791552453082603788,
0.0015564560890197754,-0.004791319370269775,-2.557510913606104e-10,1791552453112660859,
0.010443806648254395,0.011266171932220459,-2.358791372353053e-10,1791552453142468644,
-0.007503807544708252,-0.0049599409103393555,-1.9905705572792865e-06,1791552453172415779,
0.014123618602752686,-0.019185662269592285,-2.0472465094407566e-10,1791552453202391301,
0.015743553638458252,0.015086174011230469,-1.454061709126217e-10,1791552453232327856,
-0.00033843517303466797,0.006245255470275879,-1.2293487855462002e-10,1791552453263113679,
0.01230776309967041,0.024210631847381592,-8.587267703849329e-11,1791552453295038386,
-0.030792713165283203,0.022403717041015625,-2.179906670651127e-06,1791552453322382333,
0.03477072715759277,-0.00385892391204834,-0.00017241204663597515,1791552453352114486,
1.0192463397979736,0.1765449047088623,0.02273461211006845,1791552453382036932,
1.4048489332199097,-0.12824463844299316,0.09075795270440877,1791552453411944867,
1.5429372787475586,-0.08561521768569946,0.04609961998673718,1791552453441938282,
0.9300670623779297,0.03098273277282715,-0.0060163060908635605,1791552453471888124,
0.9774787425994873,-0.21714818477630615,0.010478586716259336,1791552453504217364,
1.4549016952514648,0.3656020164489746,0.008670120395783094,1791552453535045170,
0.2863280773162842,-0.15725213289260864,0.020857619689610415,1791552453561801357,
0.9975172877311707,0.24288946390151978,0.0037722380515201365,1791552453591659831,
0.8876258730888367,0.04648447036743164,0.011555788503737096,1791552453621594623,
1.533584713935852,-0.10516434907913208,0.006171642409108962,1791552453651558736,
0.7526907920837402,-0.036424100399017334,-0.0018589922207403067,1791552453680513280,
0.8405223488807678,0.5627726316452026,0.0024035970654882935,1791552453711583673,
0.925434410572052,0.5855271816253662,0.0035189985906635707,1791552453742125058,
1.166469693183899,-0.19790196418762207,-0.004983305348662736,1791552453774248418,
0.39595121145248413,0.2436017394065857,-0.02615725246903126,1791552453801406408,
0.23757386207580566,0.12958961725234985,-0.0199905652595599,1791552453823614782,
0.38607633113861084,0.2175506353378296,0.011130674422318939,1791552453853463151,
-0.3778466582298279,0.22866803407669067,-0.005997823521273177,1791552453891111473,
-0.11404770612716675,0.1420418620109558,-0.03455082816481923,1791552453921093913,
0.16101855039596558,-0.21658247709274292,-0.04682315597769641,1791552453951683167,
-0.08327990770339966,0.14536601305007935,-0.03101119718673529,1791552453983134544,
0.41796237230300903,-0.6863945126533508,-0.027375984209674627,1791552454010956155,
0.6521756649017334,0.13083243370056152,-0.02616599491047363,1791552454041725272,
-0.19854944944381714,0.28976762294769287,-0.03848807030189618,1791552454070805390,
0.3668179512023926,-0.14189738035202026,-0.04147188497674825,1791552454100766696,
0.3467981815338135,-0.19655579328536987,-0.031489002459656044,1791552454130746214,
-0.1597159504890442,0.2991008758544922,-0.040119174999116,1791552454160705225,
0.02632272243499756,0.2531256079673767,-0.02901814754599266,1791552454191380055,
0.2706243395805359,-0.24188709259033203,-0.0075554198145580745,1791552454223305131,
-0.18089163303375244,-0.10454791784286499,-0.007518426620200401,1791552454250883425,
0.6967662572860718,-0.4979054927825928,-0.02163604513883686,1791552454280445263,
-0.24392050504684448,0.5266909599304199,-0.02248261771848551,1791552454309447307,
-0.09318196773529053,0.37926673889160156,-0.019780632055220026,1791552454340306313,
-0.04564225673675537,-0.4660055637359619,-0.03788204373430492,1791552454370314385,
-0.3249776363372803,0.12449401617050171,-0.06045510791000143,1791552454400215103,
1.079441785812378,-0.3890675902366638,-0.0816842331866276,1791552454430520172,
-0.5312572121620178,-0.12921738624572754,-0.05996139045112804,1791552454463784807,
0.07377338409423828,-0.6803026795387268,-0.047875466677001294,1791552454500005736,
-0.11879271268844604,0.5687999129295349,-0.04953996737216088,1791552454530018702,
0.41121160984039307,0.07105398178100586,-0.07538254988723062,1791552454559955914,
0.3221391439437866,0.23873192071914673,-0.03769234247121969,1791552454591879669,
0.472456157207489,0.2100203037261963,-0.031005542701869237,1791552454623553713,
-0.41890043020248413,0.6487576961517334,-0.024660222995031622,1791552454659730861,
-0.34696173667907715,-0.3375476598739624,-0.04531784558764074,1791552454719675498,
0.03373903036117554,-0.193902850151062,-0.023864930806196512,1791552454751301257,
0.0984947681427002,-0.22199982404708862,-0.02087249778092604,1791552454782299321,
-0.2645190358161926,0.08340740203857422,-0.04805879990116256,1791552454819444754,
0.023060202598571777,-0.3114892244338989,-0.022188113858605755,1791552454849407723,
-0.19162970781326294,-0.35666853189468384,-0.04054833878211911,1791552454879650918,
-0.34856855869293213,0.11178821325302124,-0.042932661628699256,1791552454911812205,
-0.08753204345703125,0.40534770488739014,-0.0336643487126657,1791552454941595614,
-0.014304876327514648,0.29045653343200684,-0.03667103697209829,1791552454979428438,
0.3299192786216736,-0.1866125464439392,-0.026093802303643204,1791552455009189756,
0.16159141063690186,0.11500054597854614,-0.022922218522385115,1791552455040720105,
-0.18922758102416992,0.20013588666915894,-0.04303998984898135,1791552455071812178,
-0.451803982257843,-0.07704931497573853,-0.04238468951623777,1791552455099025278,
0.8305408954620361,-0.24093729257583618,-0.06154327760540526,1791552455129193905,
-0.43324071168899536,0.058630406856536865,-0.05821947662231622,1791552455158924092,
1.0245574712753296,0.1673976182937622,-0.011061350648307221,1791552455188840421,
-0.450051486492157,-0.13218897581100464,-0.00276027954018353,1791552455219060776,
-0.20107847452163696,-0.7250363826751709,-0.011060424449249748,1791552455248955957,
0.5402539968490601,0.433719277381897,-0.036762140990908486,1791552455279166469,
-0.22723054885864258,0.20874017477035522,-0.06281858327829763,1791552455310683917,
0.21096545457839966,-0.012017130851745605,-0.03229826042231469,1791552455339191072,
-0.13631391525268555,-0.00926506519317627,-0.004902669142912932,1791552455368594588,
-0.08770757913589478,-0.0471724271774292,-0.02301592671814945,1791552455397467010,
-0.26261335611343384,0.0911552906036377,-0.042901572992793666,1791552455428404379,
0.4047449827194214,-0.1800275444984436,-0.05890194857091934,1791552455458487032,
0.40589678287506104,-0.3648563623428345,-0.029311005451755506,1791552455489127006,
-0.1016380786895752,0.3164186477661133,-0.037363058551545085,1791552455519251803,
0.0024548768997192383,0.11807197332382202,-0.047081308103951586,1791552455553642745,
-0.31475281715393066,0.09937554597854614,-0.042561207907221996,1791552455588736964,
-0.1021953821182251,-0.04005265235900879,-0.05700501605760164,1791552455618762643,
-0.4634972810745239,-0.4182388186454773,-0.06890760666991694,1791552455648712029,
-0.3821300268173218,-0.3062102198600769,-0.030913920712010174,1791552455679086745,
-0.014921188354492188,0.010144412517547607,-0.03496088597619031,1791552455711083338,
0.022553980350494385,0.24800342321395874,-0.05998004771195106,1791552455737916928,
-0.07687658071517944,0.9108203649520874,-0.04009819233245223,1791552455767831507,
-0.05868268013000488,-0.6822161674499512,-0.06562384133215633,1791552455798070907,
-0.13878047466278076,-0.8124397993087769,-0.050532078639189064,1791552455827717403,
0.025140583515167236,0.6367823481559753,-0.014147013374929678,1791552455857767204,
0.16475021839141846,0.18392378091812134,-0.01766882590433183,1791552455887644398,
0.06361562013626099,0.03647875785827637,-0.02469629949520078,1791552455919990891,
-0.07959514856338501,0.3271815776824951,-0.04881712593519172,1791552455950078595,
0.2197774052619934,-0.7009486556053162,-0.058817594771056594,1791552455977558835,
-0.11099612712860107,-0.06891947984695435,-0.024348400990600986,1791552456007457104,
0.16898351907730103,0.7503632307052612,-0.03743324385500595,1791552456036531048,
0.022128522396087646,0.0258522629737854,-0.037393512228467034,1791552456067281152,
0.05640500783920288,0.12546050548553467,-0.04334420863414533,1791552456097234914,
-0.13454943895339966,0.06321048736572266,-0.05781368235562907,1791552456127771517,
-0.49870043992996216,-0.5528386831283569,-0.03401119044813563,1791552456159498699,
0.4761642813682556,0.033441245555877686,-0.030313274537553517,1791552456187129654,
0.05426055192947388,0.4172864556312561,-0.02243750361662516,1791552456217062681,
0.2279658317565918,-0.019880354404449463,-0.03991278276288163,1791552456246915774,
-0.04091829061508179,0.4698323607444763,-0.05630982310962627,1791552456276940643,
-0.016739487648010254,-0.5406951308250427,-0.02090971357955349,1791552456307019623,
-0.13113433122634888,-0.3410137891769409,-0.013775741500539626,1791552456336876038,
-0.08659642934799194,0.6177893877029419,-0.043206383268042256,1791552456367916114,
0.4585344195365906,-0.19377940893173218,-0.01465774413852169,1791552456399494494,
0.04658859968185425,-0.13282644748687744,-0.0267345762523405,1791552456426707341,
0.03873276710510254,0.6725114583969116,-0.056305264151,1791552456456573515,
0.0020301342010498047,0.1187211275100708,-0.05047820101109432,1791552456485498373,
-0.44080477952957153,-0.4243261218070984,-0.0428273046798691,1791552456516489397,
-0.30564844608306885,0.40899091958999634,-0.04070696475436113,1791552456546696744,
-0.16618454456329346,-0.2686118483543396,-0.02866412665563985,1791552456576405627,
-0.40474754571914673,0.2643280625343323,-0.0441411328820566,1791552456607843060,
0.26292961835861206,-0.19651132822036743,-0.07206659033343661,1791552456639212760,
-0.4633168578147888,-0.4276426434516907,-0.03438238126129074,1791552456666273664,
-0.2973265051841736,0.17538058757781982,-0.02528437414909827,1791552456696179272,
0.27102822065353394,0.17650312185287476,-0.038317563058491065,1791552456718702181,
-0.18070155382156372,0.22964978218078613,-0.026370902670374688,1791552456756051039,
-0.11403334140777588,0.23668968677520752,-0.04300652993749734,1791552456786023514,
0.1321766972541809,-0.6798651814460754,-0.029907349534603427,1791552456816115472,
-0.3155871629714966,-0.22672003507614136,-0.014315222856627938,1791552456848763165,
0.058995604515075684,0.5453085899353027,-0.017463711698114538,1791552456879114315,
0.4641973376274109,0.1431463360786438,-0.01395508846095091,1791552456905878739,
-0.5126661658287048,-0.09440076351165771,-0.019498261679887607,1791552456935748660,
0.2671053409576416,-0.22106659412384033,-0.03740676822976851,1791552456965692057,
-0.06590574979782104,0.20136988162994385,-0.050156526229380924,1791552456995618312,
-0.1539616584777832,-0.16032958030700684,-0.05596721062729411,1791552457024650433,
-0.0006216764450073242,0.02246713638305664,-0.03325273524877045,1791552457054478861,
0.3463020324707031,0.3402203917503357,-0.03535447840326843,1791552457087212662,
-0.33406829833984375,0.4745118021965027,-0.05056109394073157,1791552457118209795,
0.12804263830184937,-0.04919600486755371,-0.04939763950440861,1791552457155351663,
-0.2590751051902771,0.13824224472045898,-0.045676981283815185,1791552457185529890,
-0.031210660934448242,0.3198707103729248,-0.04856884064401649,1791552457215867704,
0.07872205972671509,-0.6128563284873962,-0.029834806777380228,1791552457247210917,
-0.9469770789146423,-0.16706043481826782,-0.03586833827723089,1791552457275142710,
0.332084596157074,0.48655784130096436,-0.04008836430818774,1791552457305097609,
-0.33251500129699707,0.3806331753730774,-0.03567565097053609,1791552457335029245,
-0.3155905604362488,-0.2020130157470703,-0.044139830713397825,1791552457365104995,
0.14024817943572998,-0.5534701943397522,-0.06086327841573783,1791552457394958494,
-0.18517345190048218,0.21204179525375366,-0.04989197661580468,1791552457424866475,
-0.4827229976654053,0.2868316173553467,-0.046331212250974786,1791552457455715610,
-0.4216150641441345,-0.17517459392547607,-0.03519446359085858,1791552457487246748,
-0.17298561334609985,-0.37529081106185913,-0.048943300978557015,1791552457514775483,
-0.06633168458938599,0.028364181518554688,-0.06262814043023644,1791552457544696295,
-0.14696449041366577,0.3258572816848755,-0.06187765967572669,1791552457574617406,
-0.30372071266174316,0.09269952774047852,-0.07306556583622145,1791552457603562806,
0.3843343257904053,-0.1832876205444336,-0.0642042788087201,1791552457633505698,
-0.17844027280807495,-0.2769979238510132,-0.029877108031935315,1791552457663541436,
0.06541883945465088,0.09714615345001221,-0.046640800968303586,1791552457695299557,
0.4344826340675354,-0.061942458152770996,-0.05733748399245179,1791552457726522755,
-0.4443908929824829,-0.0957593321800232,-0.060339243974354195,1791552457754305228,
-0.6636209487915039,-0.3282068967819214,-0.06467526420439436,1791552457784291032,
0.47451990842819214,0.09200161695480347,-0.03783138831697167,1791552457814193298,
-0.7964993715286255,0.5689995288848877,-0.03653915015651954,1791552457844250974,
0.3344995975494385,0.11551022529602051,-0.037159348865261926,1791552457874275870,
-0.028515875339508057,-0.43840742111206055,-0.05258269440815311,1791552457904281834,
0.22265887260437012,0.4191151261329651,-0.06983561515096606,1791552457935274602,
0.012662053108215332,0.4687193036079407,-0.045406742736776654,1791552457967171681,
-0.588523268699646,-0.33301085233688354,-0.05876237027324822,1791552457994351797,
-0.3989662528038025,-0.3109667897224426,-0.04693162812897766,1791552458024223540,
0.04302334785461426,0.2053406834602356,-0.03555081467605723,1791552458054084414,
-0.013119697570800781,0.36171483993530273,-0.03684225604180012,1791552458084052155,
-0.655106246471405,0.08482903242111206,-0.04138265979623566,1791552458114010894,
0.8345479369163513,-0.2389371395111084,-0.04635439812095842,1791552458144018942,
-0.725868821144104,-0.2735457420349121,-0.048521532165344994,1791552458175601100,
0.33596616983413696,-0.2857136130332947,-0.05228920489770254,1791552458205764537,
-0.4308658242225647,0.04253804683685303,-0.03900705899206868,1791552458243900631,
-0.36385971307754517,-0.5767766833305359,-0.04809482319535561,1791552458273939472,
0.07268130779266357,0.13544875383377075,-0.03841835772527869,1791552458303908187,
-0.40155029296875,0.21065235137939453,-0.051302202515260485,1791552458335304040,
0.05306267738342285,-0.10496687889099121,-0.05194967972397193,1791552458363203638,
-0.023550570011138916,0.19273704290390015,-0.02109738234837466,1791552458393144140,
-0.40563154220581055,0.2183901071548462,-0.030543167208949517,1791552458423069203,
0.1637619137763977,-0.5698196291923523,-0.031763024263579985,1791552458453082412,
-0.2034626603126526,0.1449604630470276,-0.07513448169817524,1791552458482992309,
-0.1794450283050537,0.520660400390625,-0.0806543198186848,1791552458512988308,
-0.22395646572113037,-0.5648003220558167,-0.04435326446746373,1791552458543790472,
-0.02298605442047119,-0.2877507209777832,-0.03125117286320186,1791552458575359718,
-0.35235148668289185,0.20148038864135742,-0.05734283108661588,1791552458602848832,
0.500511646270752,0.5449304580688477,-0.038203819785413554,1791552458632881951,
-0.35840678215026855,-0.33677875995635986,-0.046157854858069065,1791552458662642326,
-0.6473392248153687,-0.06822580099105835,-0.05070622773057953,1791552458692572147,
0.291786789894104,0.12669968605041504,-0.0338782598277989,1791552458722553175,
-0.75528883934021,0.15125113725662231,-0.0679619859792507,1791552458751516238,
0.6331173777580261,-0.13679587841033936,-0.05017828849298327,1791552458783720023,
0.17126506567001343,0.12590783834457397,-0.018816556895013947,1791552458815317489,
-0.525614321231842,-0.15080326795578003,-0.03746720006814851,1791552458842368758,
0.05925101041793823,-0.2433788776397705,-0.019037050037475873,1791552458872275257,
-0.1952952742576599,0.3088921308517456,-0.021942589940812406,1791552458902236191,
-0.5312588810920715,0.2185204029083252,-0.04368060127062168,1791552458932142585,
0.5213508605957031,-0.16891354322433472,-0.03560650541708736,1791552458962111791,
0.24228698015213013,-0.5057339668273926,-0.05701079153745202,1791552458992089090,
-0.41298556327819824,0.12473040819168091,-0.06055331622318784,1791552459023825364,
-0.03883373737335205,0.3626554012298584,-0.033771535877483216,1791552459055918178,
0.06621921062469482,0.1772637963294983,-0.029836128855370056,1791552459082002866,
-0.7587147951126099,-0.6615687012672424,-0.04599957960080747,1791552459111853399,
0.50633305311203,0.1323544979095459,-0.04513228435051975,1791552459141812066,
0.09187382459640503,-0.014956831932067871,-0.026613760322324143,1791552459171735618,
-0.3548535704612732,0.06926321983337402,-0.02394856072599075,1791552459201684100,
0.01898258924484253,0.7286950945854187,-0.06081074473564907,1791552459231685035,
-0.36303114891052246,-0.6360597610473633,-0.055481610391579624,1791552459262514858,
0.226030170917511,-0.6896957755088806,-0.033960005584313495,1791552459293729784,
-0.3376609683036804,0.13888037204742432,-0.0521153965697764,1791552459331474983,
0.3424028754234314,-0.0773887038230896,-0.014660014514018048,1791552459361413357,
-0.2399519681930542,0.29011768102645874,-0.0255202333793002,1791552459390499872,
-0.3888271450996399,0.0738295316696167,-0.02763096566625902,1791552459423541186,
-0.45982450246810913,-0.02736884355545044,-0.015505034006498575,1791552459451304368,
-0.49352192878723145,0.2158105969429016,-0.05202705740594602,1791552459481221305,
-0.009218454360961914,-0.37342244386672974,-0.05760118162345838,1791552459511162851,
0.1656612753868103,-0.13490146398544312,-0.05179423805132053,1791552459541106989,
-0.18537092208862305,0.5553092956542969,-0.06769785715598677,1791552459571054291,
-0.21671819686889648,-0.05285757780075073,-0.05953905063989007,1791552459601005236,
-0.1895316243171692,-0.3348824381828308,-0.031414244104248326,1791552459632273265,
-0.45487475395202637,0.03160703182220459,-0.057239811078479495,1791552459663469353,
-0.16155904531478882,-0.18395298719406128,-0.04939207984477419,1791552459690891304,
0.2711232900619507,0.07943964004516602,-0.0067427146544720385,1791552459720798443,
-0.07968586683273315,0.3625154495239258,-0.0316521095342488,1791552459743674221,
-0.045645058155059814,-0.2512962222099304,-0.04325279383664418,1791552459779714919,
-0.2630917429924011,0.26354849338531494,-0.03745899558554994,1791552459810711631,
-0.14582741260528564,0.10920077562332153,-0.07180612866480683,1791552459841028214,
0.008294999599456787,-0.021041452884674072,-0.054659869157266824,1791552459871438137,
0.4552791714668274,0.23453432321548462,-0.04486114527980575,1791552459903484220,
-0.4418703317642212,-0.8059941530227661,-0.05826262458091051,1791552459930819662,
-0.29806697368621826,0.089510977268219,-0.0498772397919728,1791552459960368276,
0.15498924255371094,0.7851973176002502,-0.05534518101388908,1791552459990344893,
-0.1798703670501709,-0.2178107500076294,-0.05326464385505899,1791552460020256568,
0.14030605554580688,-0.1146690845489502,-0.05134850107843311,1791552460050219568,
-0.08081227540969849,0.41034501791000366,-0.06145424753578127,1791552460080227869,
-0.17192959785461426,-0.6226189136505127,-0.058234333822740895,1791552460111617733,
-0.049088120460510254,0.15288668870925903,-0.037126148253519634,1791552460143434676,
-0.32140326499938965,-0.18302488327026367,-0.050326020730600836,1791552460179971894,
-0.36221855878829956,-0.35561603307724,-0.03627761762096722,1791552460210005650,
-0.15170663595199585,0.3509393334388733,-0.03177414914796448,1791552460239863946,
0.3349006772041321,0.13703978061676025,-0.017968707447591246,1791552460272201486,
-0.369815468788147,0.21558380126953125,-0.029714993213382623,1791552460303109285,
-0.613951563835144,-0.019685983657836914,-0.03580288839753371,1791552460329768376,
-0.5731463432312012,-0.7878898978233337,-0.047461484493357305,1791552460359664642,
0.19165849685668945,-0.18770509958267212,-0.05276500805369378,1791552460383261242,
0.8598341345787048,0.3239668011665344,-0.08851231677196252,1791552460419752209,
0.06622093915939331,0.07909071445465088,-0.0403488866889996,1791552460449479057,
-0.3091522455215454,-0.1790602207183838,-0.06153910826226445,1791552460479461115,
-0.0007663369178771973,0.0810779333114624,-0.06755036657638538,1791552460511651464,
-0.5880158543586731,0.12287378311157227,-0.029838566851956485,1791552460540104862,
-0.3453829884529114,-0.017700552940368652,-0.029198910625804934,1791552460569306592,
0.2852957844734192,-0.1589045524597168,-0.03616002282346068,1791552460599279140,
-0.02306067943572998,-0.2505466341972351,-0.040184927861614754,1791552460629442869,
0.01946115493774414,0.4514082670211792,-0.06744890252320217,1791552460659232514,
0.5020016431808472,-0.28122007846832275,-0.08044340665305895,1791552460689218569,
-0.5815785527229309,0.08483296632766724,-0.06213528672071221,1791552460719813892,
0.13987118005752563,0.39141666889190674,-0.04493669573906232,1791552460751936640,
-0.32501858472824097,-0.48542261123657227,-0.020339205548039214,1791552460778915508,
-0.2093384861946106,-0.4030519127845764,-0.016121206321031454,1791552460808880884,
-0.154319167137146,-0.06505006551742554,-0.02343453675097221,1791552460831488096,
-0.24445581436157227,0.6109538674354553,-0.04532319898458873,1791552460868786620,
-0.2883085608482361,0.2987852096557617,-0.05139464422405792,1791552460897718969,
0.030772507190704346,-0.30340808629989624,-0.026906412532065216,1791552460929361385,
-0.5278293490409851,-0.28639572858810425,-0.030906164593392644,1791552460959429983,
0.17310816049575806,-0.03595292568206787,-0.03411293181360113,1791552460991655824,
-0.47110188007354736,0.001965165138244629,-0.08325081516563419,1791552461019196371,
-0.29394465684890747,0.5271735191345215,-0.07085255069612684,1791552461049069429,
-0.2258286476135254,-0.17932432889938354,-0.02876655447286437,1791552461079004328,
-0.13678455352783203,-0.6184592247009277,-0.005358412130675361,1791552461108960414,
-0.3467727303504944,-0.17058569192886353,-0.04354816411927707,1791552461139314472,
0.621514618396759,0.2943940758705139,-0.05732515159416725,1791552461168382906,
-0.19413429498672485,-0.11138665676116943,-0.06759679565125555,1791552461199658142,
-0.5774051547050476,-0.15903502702713013,-0.06700605070975259,1791552461231167534,
0.4372996687889099,-0.06764674186706543,-0.05912728486840569,1791552461258230543,
-0.9051416516304016,-0.12365436553955078,-0.04973410004254978,1791552461288021207,
-0.9606325626373291,-0.21579360961914062,-0.03851536234564422,1791552461310159590,
0.4332609176635742,0.31081414222717285,-0.028599773062253,1791552461347951865,
-0.4278945326805115,0.28031837940216064,-0.036763152497966446,1791552461377835671,
0.14082854986190796,-0.5848696231842041,-0.05205735834426953,1791552461408017745,
-0.6723104119300842,-0.3572457432746887,-0.08079082200623663,1791552461439412743,
-0.36655670404434204,0.2063494324684143,-0.07703361525031319,1791552461469936907,
0.5081972479820251,-0.03789198398590088,-0.06872958958827453,1791552461497505541,
0.2465713620185852,-0.21860677003860474,-0.05939659264573439,1791552461527607190,
-0.3488425016403198,0.2574477195739746,-0.05240459201738108,1791552461557571783,
-0.4481409788131714,-0.13484972715377808,-0.0464047740808747,1791552461587777568,
0.14666599035263062,0.1500769853591919,-0.01364749785064167,1791552461617699055,
-0.6796668767929077,0.1278289556503296,-0.018159274590884233,1791552461647997481,
0.6265906691551208,-0.3611144423484802,-0.04293234866465853,1791552461680286773,
0.06308150291442871,0.06648021936416626,-0.0841375405734008,1791552461707608532,
0.0341029167175293,0.09023338556289673,-0.05207565901357956,1791552461737250945,
-0.14800477027893066,0.3102622628211975,-0.03907540113699803,1791552461767181948,
0.10604947805404663,-0.40270131826400757,-0.05066337054263631,1791552461797071149,
0.07349997758865356,-0.7084032893180847,-0.019889092354980674,1791552461827068699,
0.42595237493515015,0.4292704463005066,-0.029426133496855352,1791552461857026489,
-0.0980411171913147,1.134210228919983,-0.04349732596283998,1791552461887428857,
0.04515343904495239,0.18038612604141235,-0.030900362530258133,1791552461918499691,
-0.23636406660079956,-0.9473255276679993,-0.05458225418492166,1791552461946864000,
0.2589048147201538,-0.36708253622055054,-0.07269174351858965,1791552461975803021,
0.17804443836212158,0.20188724994659424,-0.05485967386516438,1791552462006743781,
0.2259742021560669,0.30961668491363525,-0.07132299516781608,1791552462036782083,
0.08115935325622559,0.0017926692962646484,-0.083550934861751,1791552462066623002,
0.07044011354446411,-0.13519489765167236,-0.035021258156016796,1791552462096579637,
0.05650538206100464,-0.5289114117622375,-0.05339571933938978,1791552462128018857,
-0.016620934009552002,-0.24262219667434692,-0.06641919450484131,1791552462159866423,
0.7646247148513794,0.9991663098335266,-0.0458687608712912,1791552462186921529,
0.18946540355682373,0.19646316766738892,-0.021043961835551624,1791552462216312161,
-0.395408570766449,-1.1604596376419067,-0.046150128970513744,1791552462246338936,
0.17941439151763916,0.18245428800582886,-0.08235861580203849,1791552462276278322,
-0.09165620803833008,-0.050434231758117676,-0.08770981824387034,1791552462306183833,
0.6349889636039734,0.11684954166412354,-0.05714468639123945,1791552462336188986,
0.36602747440338135,0.4042830467224121,-0.05151633734836505,1791552462367447746,
0.1396636962890625,-0.33209341764450073,-0.042570734886551984,1791552462399163001,
-0.2476027011871338,-0.139018714427948,-0.03610628123436212,1791552462426916135,
-0.1681404709815979,0.145408034324646,-0.029770580905880698,1791552462455944169,
-0.02474367618560791,-0.127547025680542,-0.03315498341285953,1791552462485882223,
0.4038793444633484,-0.11213713884353638,-0.059809833139082634,1791552462515860124,
0.17454642057418823,0.023490190505981445,-0.05416107677807907,1791552462545730354,
0.23112398386001587,0.0039231181144714355,-0.038718700627058185,1791552462575929093,
-0.28647416830062866,0.3227576017379761,-0.05369953236307432,1791552462606514823,
0.20016485452651978,-0.008829772472381592,-0.03483476744981538,1791552462638648781,
0.11097466945648193,-0.2945325970649719,-0.0235282405252032,1791552462666117254,
0.44208139181137085,0.31382107734680176,-0.06700229008697924,1791552462695673809,
0.5495871305465698,-0.01784658432006836,-0.05980712254912765,1791552462725437652,
-0.004043996334075928,-0.12408989667892456,-0.026908609243148057,1791552462755408050,
-0.13993340730667114,-0.029303789138793945,-0.055392933684213934,1791552462784720960,
0.40274983644485474,-0.37919503450393677,-0.04655257020310058,1791552462816238937,
-0.0348585844039917,0.30075275897979736,-0.048550644236880935,1791552462847556250,
0.09526348114013672,0.3863658905029297,-0.06668682844271943,1791552462875669068,
0.5367238521575928,0.05696237087249756,-0.04978192649376632,1791552462905645922,
0.0612679123878479,-0.23542094230651855,-0.05666307703653237,1791552462935146691,
-0.5728100538253784,-0.32888758182525635,-0.03623627616631927,1791552462965047078,
0.14817994832992554,0.24828457832336426,-0.028958199219722303,1791552462995106525,
0.17753297090530396,0.5956554412841797,-0.0430736543429607,1791552463025132865,
-0.41424643993377686,-0.5068656802177429,-0.04900363842751782,1791552463053522836,
0.6493837833404541,-0.311707079410553,-0.03563514657205656,1791552463087974168,
-0.14618325233459473,0.2922070622444153,-0.0553221987718156,1791552463115626125,
-0.1478438377380371,-0.15177243947982788,-0.06469051176178592,1791552463144719680,
-0.22298568487167358,0.4308532476425171,-0.06024813723043891,1791552463174722747,
0.050382256507873535,-0.005832672119140625,-0.06918397182181961,1791552463204721869,
0.15229445695877075,-0.028938889503479004,-0.056564530771832565,1791552463233851132,
0.4884355664253235,0.3351348042488098,-0.05686425593348289,1791552463263966314,
0.2331470251083374,-0.24691587686538696,-0.012895165074639512,1791552463296166847,
-0.0629168152809143,0.23360341787338257,-0.014261855531349763,1791552463327831368,
-0.2150402069091797,0.4432756304740906,-0.045105402866466304,1791552463355234557,
0.18105965852737427,-0.5373552441596985,-0.05121704590129422,1791552463384626873,
-0.4579468369483948,0.2828998565673828,-0.038738291398902704,1791552463407576266,
0.061165809631347656,0.4506521224975586,-0.06291846310122329,1791552463434895006,
-0.556983470916748,-0.5763354897499084,-0.0957001463919798,1791552463464464326,
0.061222732067108154,-0.03527897596359253,-0.07833908580329672,1791552463494334097,
-0.12473595142364502,0.4745471477508545,-0.058815016407023746,1791552463524382434,
0.02701479196548462,-0.2137652039527893,-0.059186115640730674,1791552463554229979,
0.31383490562438965,0.18623244762420654,-0.05361822624932844,1791552463584321352,
-0.8334078788757324,0.4054297208786011,-0.07109741071010597,1791552463615626130,
-0.09079164266586304,-0.6832453012466431,-0.06071615035090965,1791552463646079504,
-0.740522027015686,0.22106170654296875,-0.06488659606688152,1791552463673585623,
0.004104018211364746,0.10713762044906616,-0.07911450115268549,1791552463704257486,
-0.26462191343307495,-0.08775073289871216,-0.07440253688934913,1791552463734227185,
