acc_x, acc_y, angular_z, stamp, 
0.0007251501083374023,-0.00907278060913086,3.3356605929021197e-10,1791552503093987645,
0.0025048255920410156,-0.034120142459869385,2.978558884171145e-10,1791552503124021891,
-0.034951746463775635,0.012743175029754639,2.627184648248438e-10,1791552503154145974,
0.004680514335632324,0.007514238357543945,2.0553564041773638e-10,1791552503253569905,
-0.005999565124511719,0.00024968385696411133,1.289814254737366e-10,1791552503283449958,
-0.014955461025238037,0.025222480297088623,9.500874025956802e-11,1791552503314002151,
-0.005976676940917969,-0.01623666286468506,6.956371388915889e-11,1791552503346081089,
0.0030153989791870117,0.01241379976272583,4.158199836026148e-11,1791552503373316670,
0.0029798150062561035,-0.014646649360656738,5.095742117711114e-11,1791552503403231809,
-0.004271388053894043,0.008597195148468018,5.440544502307255e-12,1791552503426259874,
-0.002320408821105957,-0.009586453437805176,2.031300503626503e-11,1791552503463139405,
-0.021980762481689453,0.010023832321166992,-1.0257670548281784e-12,1791552503493053236,
-0.003821849822998047,0.0009191036224365234,-6.302367943901219e-12,1791552503523073976,
-0.007233798503875732,-0.009927451610565186,9.423560185076653e-14,1791552503553744831,
-0.030554592609405518,0.007945120334625244,-9.920177530020613e-12,1791552503585866844,
0.002104520797729492,0.01143348217010498,1.734247633236357e-11,1791552503612934375,
0.016625285148620605,-0.0048438310623168945,-1.8053433892130814e-11,1791552503641840223,
0.011306703090667725,0.009446203708648682,2.4477818451570688e-11,1791552503672723706,
0.0059926509857177734,-0.0014639496803283691,3.530659009629939e-11,1791552503702705513,
-0.038941800594329834,-0.01223444938659668,5.897937035022512e-12,1791552503732611841,
0.00257265567779541,0.02374720573425293,5.7636891023256735e-11,1791552503762614699,
-0.0026236772537231445,-0.0032563209533691406,1.135315221210723e-10,1791552503795097461,
-0.01321566104888916,0.005583465099334717,1.5542198231287069e-10,1791552503825704663,
0.019115686416625977,-0.012628436088562012,2.640020342750184e-10,1791552503851501905,
0.010000169277191162,-0.01619166135787964,1.6264979013300984e-10,1791552503882450049,
-0.017084062099456787,-0.0071677565574646,1.7080601807119868e-10,1791552503912327521,
0.009790539741516113,-0.0071299076080322266,1.4325137357577688e-10,1791552503942287767,
0.013100206851959229,0.012635529041290283,4.6364907708714666e-11,1791552503972257616,
0.012790381908416748,-0.028633058071136475,3.6364701268752995e-11,1791552504002380986,
-0.007159173488616943,0.02356475591659546,2.9598743220936133e-12,1791552504033630132,
0.023014307022094727,0.03613954782485962,-1.0311127935660326e-10,1791552504063542658,
-0.0077214837074279785,0.00905144214630127,-1.0917075940686572e-10,1791552504102016311,
0.004647195339202881,-0.009008526802062988,-8.900330176914056e-11,1791552504131949735,
-0.002696990966796875,0.014399468898773193,-4.875585483571269e-11,1791552504161898999,
-0.006276905536651611,0.010780096054077148,-4.389230804377537e-11,1791552504192688561,
-0.007823765277862549,0.01599031686782837,-3.911778454101239e-11,1791552504223907087,
-0.002113938331604004,-0.012979388236999512,-8.57256961437526e-11,1791552504261711762,
0.028483927249908447,-0.012906670570373535,-7.081452710608132e-11,1791552504291680091,
-0.014544844627380371,-0.014445304870605469,-9.030035908301276e-12,1791552504322180693,
-0.007169902324676514,0.00013720989227294922,-2.72835154543077e-12,1791552504353836949,
0.00021976232528686523,-0.023102521896362305,9.850855375049316e-12,1791552504381590065,
0.009135305881500244,-0.02655184268951416,8.87879284904608e-12,1791552504411399012,
0.016212761402130127,0.0007579922676086426,-1.462247992308755e-11,1791552504441408127,
-0.016215026378631592,0.004644155502319336,3.334412996578757e-12,1791552504471321235,
-0.016400516033172607,0.012050986289978027,2.2173722509298592e-11,1791552504501268370,
-0.003706037998199463,-0.0021506547927856445,3.222622913154998e-11,1791552504531255757,
0.021258831024169922,0.012392222881317139,1.744229851453372e-11,1791552504562212099,
0.0013490915298461914,-0.0018461346626281738,8.380540566362076e-11,1791552504593827346,
-0.0058934688568115234,0.026908576488494873,1.3074073029500706e-10,1791552504621177665,
0.011990189552307129,0.008729159832000732,1.0075510436462592e-10,1791552504651056974,
-0.01142185926437378,0.008449733257293701,2.8337247010729043e-11,1791552504680952847,
0.011840283870697021,0.006339609622955322,5.5041437047959286e-11,1791552504709920257,
-0.0043648481369018555,-0.0010432600975036621,4.787025754266814e-11,1791552504740840189,
0.00827401876449585,-0.013729989528656006,1.0572057466393242e-11,1791552504770821103,
0.0048067569732666016,0.0023370981216430664,-1.0107546036577731e-11,1791552504801891144,
0.015659630298614502,0.002165496349334717,-2.4885872093629558e-11,1791552504834276496,
-0.007704377174377441,8.934736251831055e-05,-6.970490076129299e-11,1791552504860718614,
-0.02026844024658203,-0.01452416181564331,-6.671744304217669e-11,1791552504890723031,
0.005083143711090088,-0.0038924813270568848,-1.4529407635343323e-12,1791552504920983700,
-0.01284325122833252,-0.011227011680603027,-7.92656275335835e-11,1791552504949570700,
-0.0037598013877868652,-0.00774693489074707,4.639387549970155e-12,1791552504979698609,
-0.003780841827392578,0.010035097599029541,-4.360086329234219e-11,1791552505011025262,
-0.027031898498535156,-0.006250321865081787,-1.2159997173787742e-11,1791552505041807133,
0.021627366542816162,0.0008443593978881836,8.164746683479081e-11,1791552505073246017,
0.001940310001373291,0.015023887157440186,1.2861798877555425e-10,1791552505100278621,
-0.0015004277229309082,0.004132688045501709,1.618644158957721e-10,1791552505130169384,
0.0020242929458618164,-0.008690834045410156,1.8172979154523922e-10,1791552505160192520,
-0.0034368038177490234,0.014433860778808594,5.141987474465041e-12,1791552505190060233,
-0.0016089677810668945,-0.0037409067153930664,1.969617998281154e-06,1791552505220325455,
-0.0033042430877685547,0.003297746181488037,2.2322967386222753e-10,1791552505248934118,
0.0129738450050354,0.012171447277069092,1.817694103419671e-10,1791552505280629390,
0.011044442653656006,-0.0005545616149902344,1.9150858573651828e-10,1791552505312026321,
-0.005629360675811768,-0.014673888683319092,6.401996387705216e-05,1791552505339957005,
0.12514537572860718,0.019198954105377197,-0.00018026072488408967,1791552505370380820,
1.1452503204345703,0.2878570556640625,0.040997902111988574,1791552505399669702,
0.9557307362556458,-0.10423523187637329,0.14319396612920401,1791552505429743180,
1.033501386642456,0.04624307155609131,0.16561447872816906,1791552505459582933,
0.8971453309059143,-0.2100260853767395,0.20996096816558416,1791552505489917572,
0.11644977331161499,0.47053903341293335,0.1883458243883036,1791552505522038188,
0.8624140024185181,0.31812357902526855,0.29514601574881394,1791552505549451687,
0.6006844639778137,0.20439797639846802,0.34369251915794424,1791552505579329889,
0.86930251121521,-0.09521710872650146,0.38714660950724655,1791552505609828210,
0.6925524473190308,0.250959575176239,0.4344784613484923,1791552505639310888,
0.3566226363182068,-0.06852918863296509,0.479514845873863,1791552505669369855,
0.6829081177711487,0.5798056721687317,0.5038138835065489,1791552505699255049,
0.3372465968132019,0.4179335832595825,0.5808314852820966,1791552505729656808,
0.9122156500816345,0.2747107148170471,0.5904834346601012,1791552505761656675,
0.25705772638320923,-0.030198097229003906,0.7180267138808613,1791552505789211591,
1.168365240097046,0.29354268312454224,0.6622533027099051,1791552505819017438,
0.000510871410369873,-0.17715561389923096,0.6546786827605686,1791552505848849404,
-0.05820000171661377,-0.3066456913948059,0.6197200737088346,1791552505878851170,
0.2594979405403137,0.6868005990982056,0.6632581915351795,1791552505908753331,
0.02932453155517578,0.9074608087539673,0.6914632133922045,1791552505938707705,
0.045525550842285156,-0.3297986388206482,0.6286602622530972,1791552505970088128,
-0.27936065196990967,-0.10835206508636475,0.5866950482359145,1791552506002113237,
-0.3014698624610901,0.22594773769378662,0.6848382065270077,1791552506029040421,
-0.5721257328987122,0.2755832076072693,0.6904942608030397,1791552506057654298,
0.15607845783233643,0.6625131368637085,0.5632376328470643,1791552506082269437,
0.04887467622756958,0.037271082401275635,0.7838504157625948,1791552506118408032,
0.013267338275909424,0.03492116928100586,0.7081511460886079,1791552506148379989,
-0.6140094995498657,0.40955913066864014,0.717361108841099,1791552506178417191,
-0.07945621013641357,0.36073052883148193,0.6630944425200208,1791552506209633846,
0.25951534509658813,0.1799604296684265,0.6212736608131255,1791552506241374590,
0.43448805809020996,-0.3963090181350708,0.7331432681408822,1791552506268241047,
-0.2668967843055725,0.9652119278907776,0.6791345206798336,1791552506298115062,
0.06802988052368164,0.709232747554779,0.6687963772121265,1791552506327979522,
0.19189482927322388,-0.7771258354187012,0.6695201128448756,1791552506357987837,
-0.6504541039466858,-0.40712612867355347,0.6868657514024255,1791552506387967053,
0.4299386143684387,1.0489516258239746,0.6773725453959695,1791552506418448194,
-0.021493613719940186,0.5998492240905762,0.6594505993478047,1791552506450294344,
0.4739799499511719,-0.3127082586288452,0.6960889204377928,1791552506480069697,
0.08633118867874146,0.11715620756149292,0.7458507739049939,1791552506507691898,
-0.6459842920303345,0.3059293031692505,0.6651961385674233,1791552506537941050,
-0.13948529958724976,0.30353641510009766,0.6778452192481316,1791552506567740428,
0.7477776408195496,0.3244284391403198,0.7190075554991723,1791552506596516330,
0.021855533123016357,-0.009080946445465088,0.6551647247021559,1791552506626518114,
-0.18872135877609253,0.801819384098053,0.6097370554192816,1791552506657833566,
-0.2256518006324768,0.047205209732055664,0.6448392397116353,1791552506689906303,
-0.3814657926559448,0.038336753845214844,0.765150396352859,1791552506717485560,
0.4706155061721802,0.2797871232032776,0.6633423109997908,1791552506747268485,
-0.4870982766151428,0.13114458322525024,0.6789065892358023,1791552506777246004,
0.38267236948013306,0.2779669165611267,0.7003935631741587,1791552506807165998,
-0.28484970331192017,0.4805324673652649,0.6742213953247116,1791552506837089697,
0.08857548236846924,-0.567980170249939,0.6616173338811885,1791552506867116048,
-0.3614569902420044,-0.099082350730896,0.6422808470824288,1791552506897981419,
0.5298876166343689,1.0083762407302856,0.620947821274413,1791552506930084559,
0.2709552049636841,0.3239143490791321,0.7822581186754848,1791552506956959041,
0.23286503553390503,-0.37339484691619873,0.6709396121175845,1791552506986852850,
0.374594509601593,0.41141289472579956,0.6622469970841592,1791552507016764226,
-0.8639203310012817,0.25777775049209595,0.6864574000038504,1791552507046776308,
0.3622991442680359,0.23668235540390015,0.6912482271761653,1791552507076673673,
0.3110293745994568,0.1447744369506836,0.656457011457301,1791552507106653887,
0.06411832571029663,-0.06921690702438354,0.6273397167438187,1791552507137763059,
-0.12086403369903564,1.1108367443084717,0.5846052360092773,1791552507169651338,
-0.08867037296295166,-0.031376659870147705,0.7178473852904621,1791552507196615104,
-0.13698148727416992,-0.38336676359176636,0.6779192456490961,1791552507226650807,
0.26453131437301636,0.21808373928070068,0.6766899922464088,1791552507256560530,
0.05303478240966797,0.6472154855728149,0.6802029276094081,1791552507286576136,
-0.41589975357055664,0.665692150592804,0.6908388678180338,1791552507316584786,
0.4820844531059265,0.08055305480957031,0.7234970897708692,1791552507346434025,
-0.539284348487854,-0.7873817086219788,0.6393269731333203,1791552507378145172,
0.03237009048461914,0.067233145236969,0.6346828997453933,1791552507408861021,
-0.262931227684021,1.12245774269104,0.7155488204643926,1791552507436407179,
0.2949095368385315,0.0828215479850769,0.6613487178624206,1791552507466432663,
0.05981564521789551,-0.3904365301132202,0.6675751720647001,1791552507496338278,
0.18743103742599487,0.8188010454177856,0.6449814573542577,1791552507526397005,
-0.3274112939834595,0.4507925510406494,0.6500431641063643,1791552507556326255,
-0.014722883701324463,-0.41793811321258545,0.6603919469470068,1791552507586587957,
0.20475292205810547,0.160325825214386,0.6543809105285927,1791552507617727203,
0.2635580897331238,0.52922523021698,0.6355385128404392,1791552507647781947,
-0.14625084400177002,0.8856586217880249,0.6537353745569072,1791552507676265074,
-0.32149606943130493,-0.19464629888534546,0.649757614009255,1791552507706302903,
-0.4520248770713806,-0.5680744051933289,0.6739145512263197,1791552507735544775,
0.6114969849586487,0.025896549224853516,0.6935828096451848,1791552507764522913,
0.028711974620819092,0.8036330938339233,0.6863691556109078,1791552507795495513,
0.37374943494796753,0.7833900451660156,0.6539892981681311,1791552507826651124,
0.1814504861831665,-0.07187908887863159,0.6487733608011741,1791552507857770668,
-0.44046175479888916,-0.8814353942871094,0.7421805090818915,1791552507885602078,
-0.01966804265975952,0.47237324714660645,0.6688332684985396,1791552507915282863,
0.17181658744812012,1.078507423400879,0.635497641996109,1791552507945129771,
0.2480788230895996,-0.6220242977142334,0.6661537790151566,1791552507975101892,
-0.4451438784599304,-0.15215539932250977,0.6786155124400888,1791552508005007173,
-0.18911248445510864,1.0103819370269775,0.6589254158904405,1791552508035021551,
-0.04286140203475952,0.2301362156867981,0.6502355578039094,1791552508066041734,
-0.456633985042572,-0.6575777530670166,0.6235105163890968,1791552508097777132,
0.7795708775520325,0.09439599514007568,0.7683481670766135,1791552508124868457,
-0.38322097063064575,0.7621634006500244,0.6943605801162671,1791552508154802660,
-0.4415203928947449,-0.06352066993713379,0.5774775014597532,1791552508177993573,
0.6941323280334473,0.06140226125717163,0.7339471043549384,1791552508204758505,
-0.23592203855514526,0.24805712699890137,0.6784287589008343,1791552508234715230,
0.39790254831314087,0.35819363594055176,0.6960314775772289,1791552508264619938,
0.20101451873779297,0.33364278078079224,0.6788319478175112,1791552508294608823,
0.213287353515625,0.38590121269226074,0.6528197469612296,1791552508324822316,
-0.7594493627548218,-0.1905916929244995,0.676851906600644,1791552508355296101,
0.1062690019607544,-0.21658694744110107,0.6743276645522114,1791552508385921424,
-0.20191699266433716,0.2299131155014038,0.6599339413827412,1791552508416929368,
0.7459270358085632,0.48051512241363525,0.7498251811674073,1791552508444274115,
0.11171889305114746,-0.09931910037994385,0.6758707873198575,1791552508474262565,
-0.635814368724823,0.01733863353729248,0.6800467403428501,1791552508504153015,
0.4007716178894043,0.5752155184745789,0.6768470080791394,1791552508534083396,
-0.27517199516296387,0.2694203853607178,0.6543354322520231,1791552508564072104,
-0.22911077737808228,-0.21122992038726807,0.6459868417844887,1791552508594365960,
0.2583385705947876,0.038156211376190186,0.6485572913144132,1791552508626050842,
-0.3704836368560791,0.6897466778755188,0.7244308238766876,1791552508656228220,
0.05591094493865967,0.3747088313102722,0.7419040660290493,1791552508683810424,
0.10412329435348511,-0.36398422718048096,0.6544869402196742,1791552508713790377,
-0.731037437915802,-0.5389829277992249,0.6814604098163388,1791552508743713811,
0.6599407196044922,0.3223842978477478,0.6870578616210834,1791552508773647110,
-0.10460537672042847,0.6581839323043823,0.6930887995824165,1791552508803660073,
0.10880565643310547,0.32432037591934204,0.655428097958409,1791552508834335094,
0.04660606384277344,-0.005480587482452393,0.6097194736108265,1791552508866206403,
-0.9604759216308594,-0.6051066517829895,0.7862356321043088,1791552508892498850,
0.2902565002441406,0.3332093358039856,0.6902286475115493,1791552508923392695,
0.7180477976799011,0.6611857414245605,0.6808178719725964,1791552508953310661,
0.08552885055541992,-0.40050452947616577,0.6988788506826634,1791552508983312330,
-0.6560642123222351,0.3212994337081909,0.6933352258804623,1791552509013216547,
0.2582896947860718,0.6970016956329346,0.6709805712401763,1791552509043168987,
-0.187100350856781,-0.07672858238220215,0.6651075457826165,1791552509073830366,
0.17916011810302734,-0.3460773825645447,0.6224563694690546,1791552509106318506,
-0.01904350519180298,0.6247386336326599,0.7386170334109352,1791552509133053500,
-0.0019612908363342285,0.5588180422782898,0.6809395482012954,1791552509163014285,
0.1255207061767578,0.3377809524536133,0.6904152494194176,1791552509192895242,
-0.359649121761322,-0.34408652782440186,0.6694237425850846,1791552509222891505,
-0.2647249698638916,-0.1445499062538147,0.6800770787792731,1791552509252822488,
-0.06952393054962158,0.41037845611572266,0.6962952083135099,1791552509282778549,
0.6396008133888245,0.4687894582748413,0.7022730279997987,1791552509313952793,
0.06177878379821777,0.17454081773757935,0.6586663084436485,1791552509345893045,
-0.3242393732070923,0.2157963514328003,0.7484798394352602,1791552509372701511,
-0.4607686996459961,-0.3151170611381531,0.671050182758054,1791552509401535028,
0.07219535112380981,0.22925400733947754,0.6728448782324108,1791552509432470011,
0.4669564366340637,0.42859745025634766,0.7081741868432165,1791552509462442521,
0.17714327573776245,0.006566762924194336,0.6880065545405044,1791552509492400032,
-0.4802783727645874,0.4045485854148865,0.7012553745979786,1791552509522335999,
-0.2264266014099121,0.4961623549461365,0.6679079801977117,1791552509554369928,
-0.10363316535949707,-0.13024121522903442,0.6691944367187945,1791552509584834728,
-0.3908047676086426,-0.3026902675628662,0.7481921523030993,1791552509611203037,
0.3778288960456848,0.8121922612190247,0.6641776660210484,1791552509641140997,
-0.42627638578414917,-0.13798749446868896,0.5702438743392889,1791552509664132648,
0.38131147623062134,0.22223323583602905,0.7081487926784548,1791552509701989929,
-0.14234250783920288,-0.5181454420089722,0.6933599104562823,1791552509732018429,
-0.44423365592956543,0.20792067050933838,0.6908086833246486,1791552509762137737,
-0.1351037621498108,0.8681432008743286,0.6412462004776082,1791552509794010249,
0.4899078607559204,-0.050331175327301025,0.7516401786347616,1791552509821869676,
0.1629086136817932,-0.062489211559295654,0.6977107832153712,1791552509851754588,
-0.5378968119621277,0.5949034690856934,0.6621373957943385,1791552509881684868,
-0.04084169864654541,-0.14629149436950684,0.6452293696751265,1791552509911682491,
-0.4478054642677307,-0.41860926151275635,0.667748759962777,1791552509941558708,
0.9999808669090271,0.48188817501068115,0.6848548420610127,1791552509971580109,
-0.035066843032836914,0.3592389225959778,0.6715184433352123,1791552510002365326,
-0.20605379343032837,0.39382654428482056,0.6214115946021378,1791552510034223880,
-0.020736634731292725,0.37953728437423706,0.7341735796782841,1791552510061463265,
0.14278388023376465,-0.1551167368888855,0.7203486574971883,1791552510091339037,
-0.5160269737243652,-0.03162485361099243,0.6859514735382376,1791552510121244541,
0.06993162631988525,0.7546552419662476,0.6513508863646473,1791552510151248046,
-0.6094514727592468,0.5540449619293213,0.6647378137142265,1791552510180191028,
0.6173612475395203,-0.034159839153289795,0.6594505423272686,1791552510211105520,
-0.4578612446784973,-0.5204378366470337,0.6476115566256498,1791552510241861485,
-0.3630187511444092,0.3605324625968933,0.5956875034694112,1791552510275408209,
0.055557310581207275,0.7554885745048523,0.7872487879018047,1791552510301457684,
0.09469115734100342,-0.1862318515777588,0.7304104343277897,1791552510330506434,
-0.14081579446792603,-0.03222912549972534,0.7006398662877,1791552510361398289,
-0.15404969453811646,0.7031832337379456,0.6856821209307444,1791552510391488070,
-0.5765482187271118,0.03706127405166626,0.6820053662427047,1791552510421375462,
-0.3153024911880493,-0.3779006004333496,0.6652333985844028,1791552510451385072,
0.5918571949005127,0.12678992748260498,0.6439129737300406,1791552510482193924,
-0.2928042411804199,0.6009103655815125,0.6669384120263517,1791552510513565273,
-0.3413316607475281,0.4861920475959778,0.7609892127200704,1791552510540627443,
-0.08031952381134033,0.11993300914764404,0.6876605391650743,1791552510569620871,
-0.028002440929412842,-0.5418933629989624,0.6441648243472237,1791552510600435880,
0.27365028858184814,0.05644732713699341,0.7040791316152956,1791552510630383443,
-0.0743749737739563,1.0609550476074219,0.6842140666502481,1791552510660342075,
0.08784359693527222,0.23391717672348022,0.6447737307261975,1791552510690315322,
-0.267154335975647,-0.22755801677703857,0.5974093858059814,1791552510722070943,
-0.452278196811676,-0.3352949619293213,0.6553199052949249,1791552510752164755,
-0.4428830146789551,0.6952320337295532,0.7091988763772973,1791552510780172117,
0.7480393648147583,0.5830657482147217,0.6706403814526303,1791552510810128230,
-0.14779657125473022,-0.3796268701553345,0.7055578098853718,1791552510840097237,
0.04033064842224121,0.04861694574356079,0.7138471879230303,1791552510869957165,
-0.07149463891983032,0.9527779817581177,0.6890294883747566,1791552510900022507,
-0.18355721235275269,-0.44673478603363037,0.6721579825094424,1791552510930699167,
0.23395788669586182,-0.44684040546417236,0.6392214673333965,1791552510962167261,
0.1669100522994995,0.3641006350517273,0.7233260647565869,1791552510989880568,
0.22185176610946655,-0.15413141250610352,0.6839034421916853,1791552511020372572,
0.06426173448562622,0.5301963090896606,0.6961518387331271,1791552511049759218,
0.10392546653747559,0.42298632860183716,0.6757765550233745,1791552511079698970,
-0.19942718744277954,-0.049964845180511475,0.6758769374219685,1791552511109744252,
-0.2336229681968689,-0.15050536394119263,0.692641588089443,1791552511139483181,
0.08584201335906982,0.30582594871520996,0.6808563983307505,1791552511170725390,
-0.09324502944946289,0.14147591590881348,0.6538282063933193,1791552511202588703,
0.13459646701812744,0.44652819633483887,0.7388917533942262,1791552511229795504,
-0.0770035982131958,-0.44596046209335327,0.6949045625210382,1791552511259962116,
-0.6485978364944458,0.4888986349105835,0.7438606947227647,1791552511288194445,
0.22408664226531982,0.8550296425819397,0.6491290847878297,1791552511319381019,
-0.18190985918045044,-0.5735167860984802,0.6643553625267334,1791552511349111161,
0.20089048147201538,-0.6762647032737732,0.6695088928468534,1791552511379048565,
0.11905694007873535,0.29735898971557617,0.6523011720840725,1791552511409901289,
-0.3237984776496887,1.0345454216003418,0.6301532272733986,1791552511442041515,
-0.3186071515083313,0.45284736156463623,0.7321425545788461,1791552511468967489,
-0.18990463018417358,-0.7822625041007996,0.6809741551475981,1791552511498872109,
-0.1774166226387024,0.14680778980255127,0.6842717505895212,1791552511529028256,
0.2695775628089905,0.7962994575500488,0.6651066185424701,1791552511558714091,
0.10331284999847412,-0.04976928234100342,0.652386490141833,1791552511588725015,
-0.6584171056747437,-0.036372482776641846,0.6624188649153544,1791552511618637918,
-0.1338704228401184,0.04490906000137329,0.6275137784419658,1791552511650295568,
-0.26384180784225464,0.2548016905784607,0.6718499735034532,1791552511681633345,
0.4390580654144287,-0.007825851440429688,0.7546281292623181,1791552511709097488,
0.40460479259490967,0.6339715123176575,0.680111125919305,1791552511738425872,
-0.1274663805961609,-0.4710785150527954,0.6876826771712813,1791552511768384090,
-0.25466328859329224,0.4779205918312073,0.6796852866512165,1791552511798268797,
-0.013445138931274414,1.0394288301467896,0.6894846181199936,1791552511827284893,
-0.17108500003814697,-0.6875900626182556,0.6325001925573154,1791552511858349296,
-0.2745879888534546,-0.8123884201049805,0.6212517115887715,1791552511889969368,
0.02990889549255371,0.9819459319114685,0.6847937113336959,1791552511920382073,
0.20628505945205688,1.00960373878479,0.7625825890794868,1791552511948027084,
-0.14578330516815186,-0.2649728059768677,0.6592648557679675,1791552511977990491,
-0.5597605109214783,-0.4636111259460449,0.6604326373263035,1791552512007929244,
0.10240846872329712,0.2728252410888672,0.6837936497004751,1791552512037843750,
-0.12846803665161133,0.681689441204071,0.6921437351572965,1791552512067848782,
0.33528393507003784,0.1358392834663391,0.681860675365093,1791552512097528850,
0.05180191993713379,-0.1439591646194458,0.6034731564809669,1791552512130475502,
-0.80062335729599,0.33857256174087524,0.7209004169232697,1791552512157827522,
0.06528615951538086,0.19562840461730957,0.66795679912873,1791552512188099340,
0.052235960960388184,-0.2710093855857849,0.6805087482642319,1791552512217571635,
0.3496021628379822,0.2929573059082031,0.636585015395271,1791552512247587648,
-0.3970208764076233,0.07289767265319824,0.677952334771626,1791552512276505159,
-0.26457101106643677,0.7906316518783569,0.654294576757338,1791552512307419244,
0.15835386514663696,0.7600796818733215,0.6673189232903329,1791552512338144068,
0.3263446092605591,-0.5452508330345154,0.6428445501333583,1791552512369948051,
0.01724952459335327,-0.6250907182693481,0.7387631869225392,1791552512397333897,
0.017595291137695312,0.8633942604064941,0.6819675104391447,1791552512426691468,
-0.11233460903167725,0.9970458149909973,0.6598828107230513,1791552512457157868,
-0.2733170986175537,-0.04222005605697632,0.6721300981360756,1791552512487128163,
-0.11991381645202637,-0.21932393312454224,0.6585757431212742,1791552512517048154,
-0.3368149399757385,0.16257131099700928,0.6782386338541868,1791552512546994934,
0.05771571397781372,0.6443121433258057,0.6903579423610691,1791552512578278268,
0.4218677282333374,-0.06996721029281616,0.6247162473468982,1791552512610825841,
-0.38571834564208984,-0.021155118942260742,0.7338845024660968,1791552512637280151,
-0.5676882863044739,0.5052903890609741,0.6546386967412564,1791552512667284700,
0.2965446710586548,0.2589319944381714,0.6802733908582986,1791552512696870798,
-0.20737910270690918,-0.17330998182296753,0.6501398720361158,1791552512726901128,
0.4537959098815918,0.47023075819015503,0.6301088041073417,1791552512756924077,
-0.3827716112136841,0.3916305899620056,0.6504959658827293,1791552512787179111,
-0.4466736912727356,0.5675249695777893,0.6493805515007556,1791552512818041418,
0.07780718803405762,0.5627710223197937,0.6679868175851102,1791552512849181380,
0.16790872812271118,-0.444244384765625,0.7623465393127941,1791552512876670062,
-0.2532562017440796,-0.14464539289474487,0.6688203216903206,1791552512906733216,
0.07129818201065063,0.7294997572898865,0.659427652458673,1791552512936616915,
-0.3119945526123047,0.11304134130477905,0.657108958017294,1791552512966660949,
-0.006140708923339844,0.17802101373672485,0.6536592598072583,1791552512996630606,
0.40498781204223633,0.6773490905761719,0.6622207120384285,1791552513026863429,
-0.2755323052406311,0.4459308981895447,0.6323020820549656,1791552513058744630,
0.11538130044937134,-0.10294795036315918,0.6650624859298006,1791552513088080218,
0.29490143060684204,-0.20080631971359253,0.6853500832321828,1791552513116716717,
-0.46923327445983887,0.2660501003265381,0.6588328869800597,1791552513146603863,
-0.3633360266685486,0.5202184319496155,0.6380465770537198,1791552513176652033,
0.4365716576576233,0.39898425340652466,0.6611937501569737,1791552513205828228,
0.21555745601654053,-0.31906646490097046,0.6899106007904356,1791552513235865834,
0.3742824196815491,0.6198602914810181,0.6345445820709693,1791552513266247666,
-0.35599470138549805,0.41784435510635376,0.6011445189057512,1791552513298306038,
-0.7348651885986328,0.31203627586364746,0.7042769222108124,1791552513326180919,
0.5589137673377991,0.6404354572296143,0.7229024120631665,1791552513355548783,
0.099925696849823,-0.21572953462600708,0.7051023587122348,1791552513385484534,
0.00469970703125,0.026527702808380127,0.6715429460096879,1791552513415730201,
-0.21603888273239136,0.7937788367271423,0.6915832098734507,1791552513445363267,
-0.6903241276741028,-0.26640069484710693,0.6881326917800338,1791552513475379319,
0.251803457736969,-0.34362494945526123,0.6406854459203597,1791552513506933483,
0.18384796380996704,0.9108965992927551,0.6175754017273338,1791552513538044283,
0.24965381622314453,0.9092843532562256,0.7019758234385642,1791552513565695847,
-0.6191275119781494,-0.3130606412887573,0.6400619266108568,1791552513595142960,
0.08621233701705933,-0.17682141065597534,0.6605969312024035,1791552513625133206,
-0.1574190855026245,0.5677376389503479,0.7133289322207389,1791552513655027704,
0.07581591606140137,0.5716581344604492,0.6777672613480232,1791552513685010781,
0.014175236225128174,0.2431701421737671,0.6632248206144902,1791552513715157056,
-0.4389844536781311,-0.003479301929473877,0.6355152394539507,1791552513746298382,
1.020616888999939,0.5049878358840942,0.6311775128878689,1791552513778159422,
-0.3408429026603699,-0.3088986873626709,0.7217970025199999,1791552513814715639,
-0.05854916572570801,-0.29302436113357544,0.6367010601271341,1791552513844925692,
-0.17376649379730225,0.6980698108673096,0.6683364953883396,1791552513874875148,
-0.30320483446121216,0.8867489099502563,0.6915201712515149,1791552513905526395,
0.37922608852386475,0.3305988907814026,0.6503793806303605,1791552513937315404,
-0.402351438999176,-0.5108267068862915,0.7382111582729516,1791552513965063313,
0.13890188932418823,0.11400705575942993,0.6975717481851829,1791552513994432860,
-0.12662452459335327,0.7871792316436768,0.6737032156544683,1791552514024376611,
0.14969635009765625,-0.1019892692565918,0.6751744562991122,1791552514054280306,
-0.18839889764785767,-0.07998144626617432,0.671130776489092,1791552514084230075,
-0.07806676626205444,0.6775119304656982,0.6588841000388278,1791552514114253476,
-0.37382668256759644,0.6350024342536926,0.6339264464569004,1791552514147223144,
0.33388280868530273,-0.37148213386535645,0.6869726995434796,1791552514177199664,
0.33545738458633423,-0.034110963344573975,0.749073002137123,1791552514204032809,
-0.6908165216445923,0.7423927187919617,0.6763998559387872,1791552514234038203,
-0.34523171186447144,0.7746080160140991,0.6778653118782383,1791552514263941741,
0.10612785816192627,-0.23656314611434937,0.6532930070070918,1791552514293870592,
0.255035400390625,-0.5484140515327454,0.6796020355348661,1791552514323781459,
0.0517122745513916,0.4760441184043884,0.676420953657599,1791552514354165462,
0.09264695644378662,0.4771190285682678,0.6319745164992282,1791552514386418590,
-0.2715098261833191,0.21456879377365112,0.7342140284692802,1791552514413796784,
0.258945107460022,0.5316783785820007,0.6682694947519648,1791552514443629800,
-0.04328441619873047,-0.14462536573410034,0.6867726623475032,1791552514473541405,
-0.2118304967880249,0.30871474742889404,0.7073364931370716,1791552514502514684,
0.10193109512329102,0.49138128757476807,0.6653545685317768,1791552514533671049,
-0.0046422481536865234,-0.05694389343261719,0.7488135125165837,1791552514562382283,
-0.1974232792854309,0.32642877101898193,0.6390947927710737,1791552514594846287,
-0.30952370166778564,0.7532563209533691,0.6230562748178323,1791552514625505799,
0.09488856792449951,-0.06088900566101074,0.687479696698816,1791552514653374920,
0.2776397466659546,-0.042826831340789795,0.6689323097140114,1791552514683181216,
0.021665990352630615,0.6169716715812683,0.6662608490435833,1791552514713127729,
-0.030980706214904785,0.568282425403595,0.6605603899530397,1791552514743063365,
-0.8108439445495605,0.34942692518234253,0.6611992341640677,1791552514773009339,
0.7678596377372742,-0.1561179757118225,0.681318178711814,1791552514802962944,
-0.20919477939605713,-0.06819349527359009,0.6497025576394079,1791552514834160284,
0.0740233063697815,0.40739327669143677,0.6163824181235235,1791552514866236172,
-0.5588679313659668,0.39853841066360474,0.7576608188864328,1791552514892900248,
0.5289219617843628,0.3432326316833496,0.6906002363733649,1791552514922755915,
-0.06928551197052002,0.03389650583267212,0.6699200635171817,1791552514952703541,
0.44153809547424316,0.07916361093521118,0.6597800396720017,1791552514982636214,
-0.3892253041267395,0.6467763185501099,0.6671723300551861,1791552515012620849,
0.06884914636611938,0.34685593843460083,0.6657526845464908,1791552515042802383,
0.306688129901886,-0.38524311780929565,0.6620903778518656,1791552515074601253,
-0.5452903509140015,0.438645601272583,0.6808085872646129,1791552515105095431,
0.11705237627029419,0.9423398971557617,0.7207830023976812,1791552515132407200,
-0.0751962661743164,-0.10338729619979858,0.642937854337686,1791552515162287368,
-0.23239505290985107,0.18353283405303955,0.6132371950479623,1791552515184325054,
-0.5061594247817993,0.45080727338790894,0.7549959989871433,1791552515212232252,
0.3768782615661621,0.16869741678237915,0.6731807321234409,1791552515242152737,
0.1260988712310791,-0.3182942271232605,0.6413568708406844,1791552515272425094,
0.13912898302078247,0.881718635559082,0.6517839208533646,1791552515302029154,
-0.3618815541267395,0.19196945428848267,0.6821820757247682,1791552515332021890,
-0.0957382321357727,0.25125688314437866,0.6874943912229317,1791552515362712637,
0.18207228183746338,0.10333001613616943,0.6384568817484452,1791552515394361798,
0.059209346771240234,-0.2788360118865967,0.7124742793999665,1791552515421931876,
-0.04114466905593872,0.08475345373153687,0.6971287258004374,1791552515451834753,
0.47297102212905884,0.6993504166603088,0.7053920501136103,1791552515481742480,
0.15754824876785278,0.25170862674713135,0.6900233423690537,1791552515511716847,
-0.3011431097984314,0.17607617378234863,0.6918157435228677,1791552515541671433,
-0.22364091873168945,0.17645949125289917,0.6997576967227219,1791552515571616861,
0.26177453994750977,0.30948179960250854,0.6939914585364138,1791552515602100350,
0.28761935234069824,0.0705832839012146,0.6476339204001805,1791552515634850520,
0.15710216760635376,-0.10040181875228882,0.8111241975471518,1791552515660448623,
-0.6656062006950378,0.24245375394821167,0.6549832469343859,1791552515691394892,
0.2446357011795044,0.8292783498764038,0.6788743522342936,1791552515721293265,
0.2624680995941162,-0.37397849559783936,0.6688165924315694,1791552515751290666,
0.0912848711013794,-0.2220572829246521,0.6566092409767558,1791552515781498385,
0.10409760475158691,0.8649463653564453,0.6832292254734095,1791552515811199685,
-0.02557837963104248,0.3003281354904175,0.6737909899455191,1791552515842148476,
-0.2504899501800537,-0.09578531980514526,0.6375925066321935,1791552515874821435,
0.2833145260810852,0.21354812383651733,0.7811232678963579,1791552515911005307,
-0.2383493185043335,0.24543583393096924,0.6773620513400364,1791552515940949030,
0.08875405788421631,0.39956289529800415,0.6773246275089363,1791552515970922507,
-0.17409932613372803,0.029308974742889404,0.6810285827646733,1791552516002550992,
-0.09290611743927002,0.012678384780883789,0.702669567972268,1791552516032543054,
0.2841055989265442,0.21359491348266602,0.6988186201381156,1791552516060707444,
-0.4220770597457886,0.2698957324028015,0.6597720302124513,1791552516090722626,
0.5113742351531982,0.4902806878089905,0.6744578102721199,1791552516120711661,
-0.35004788637161255,0.4689826965332031,0.6625639791315397,1791552516150873658,
0.09447932243347168,-0.3753625750541687,0.6481703451319848,1791552516180623077,
-0.23782283067703247,-0.16515541076660156,0.6709086668352885,1791552516209648752,
0.03173023462295532,1.0570127964019775,0.607412996429104,1791552516242135799,
0.06571877002716064,0.4112454652786255,0.6671579912357216,1791552516272452883,
-0.16385221481323242,-0.04588329792022705,0.7029141884930379,1791552516300355184,
-0.11089813709259033,-0.11124122142791748,0.6391382486690151,1791552516330333551,
-0.38788044452667236,0.16679930686950684,0.6812627898393653,1791552516360371877,
0.41514575481414795,1.0626153945922852,0.7099065162280597,1791552516390410875,
-0.10456782579421997,0.355768084526062,0.6733850265956154,1791552516420442331,
-0.0997323989868164,-0.17993879318237305,0.657780380994397,1791552516450765592,
0.5085562467575073,-0.23458176851272583,0.6532910460620381,1791552516482107970,
-0.8071340322494507,0.21949589252471924,0.7558836735617527,1791552516510105733,
0.077908456325531,0.451956570148468,0.6855924924814433,1791552516539920363,
0.5611631274223328,0.18960565328598022,0.6622124445071353,1791552516569816305,
-0.11609405279159546,-0.19781261682510376,0.6651290925590528,1791552516599771997,
-0.4833628535270691,0.05130249261856079,0.6950266293228442,1791552516629784782,
0.011150360107421875,0.6561729311943054,0.6867998303016463,1791552516659644358,
0.11532944440841675,0.24170327186584473,0.6443385864495056,1791552516690256614,
0.3527682423591614,-0.3395048975944519,0.6285856548955333,1791552516722244689,
0.04763573408126831,0.046927034854888916,0.7816724654769254,1791552516748549613,
-0.3750758171081543,0.5765107274055481,0.6684672306139788,1791552516779450491,
0.7016241550445557,0.4455775022506714,0.6768639495299831,1791552516809350975,
-0.19146966934204102,-0.49595367908477783,0.660063937108441,1791552516839316692,
-0.29223495721817017,0.2238534688949585,0.6568546136377856,1791552516869350604,
0.0373191237449646,1.1494050025939941,0.6551089478495299,1791552516899221548,
0.036534667015075684,-0.03985828161239624,0.6610370092049965,1791552516930380383,
0.3925739526748657,-0.46731698513031006,0.6263290878332127,1791552516962626760,
-0.36561089754104614,0.18947100639343262,0.7236356179057627,1791552516989371939,
-0.5043460726737976,0.1010136604309082,0.67988338849535,1791552517019051075,
0.15738004446029663,0.359009325504303,0.6820995361273293,1791552517049133186,
0.4412466287612915,0.3161155581474304,0.6744536602473146,1791552517078929061,
-0.04751366376876831,-0.012221038341522217,0.6688642088275643,1791552517109209525,
-0.2898346185684204,0.2470892071723938,0.6695735853794674,1791552517139062448,
0.03653311729431152,0.4792652726173401,0.60917307210013,1791552517172057250,
-0.06669920682907104,-0.22536176443099976,0.6879333895591302,1791552517201443103,
0.08774995803833008,-0.08389097452163696,0.7251218176035806,1791552517228936742,
0.014983117580413818,0.4505258798599243,0.6674782875593852,1791552517258598111,
0.342044472694397,-0.0859529972076416,0.6038847907016904,1791552517281492060,
-0.1272794008255005,-0.00877237319946289,0.7349839895628132,1791552517318488772,
0.07367372512817383,-0.3592706322669983,0.6507974365058852,1791552517348453195,
0.09205418825149536,0.46018922328948975,0.6595879028686424,1791552517379175351,
0.2580183148384094,0.8065183758735657,0.6450112673451666,1791552517410690329,
0.14570403099060059,-0.042672693729400635,0.6646441916932245,1791552517440771354,
0.3298771381378174,-0.26384127140045166,0.6970774378725666,1791552517469217653,
-0.32056373357772827,0.6727327108383179,0.6832403753462997,1791552517498152100,
-0.2991951107978821,-0.03237277269363403,0.6602098073335662,1791552517528154283,
0.08252674341201782,-0.18892592191696167,0.6967520071774165,1791552517558059210,
0.36640655994415283,0.2763686180114746,0.7238066131722166,1791552517588013361,
0.03508174419403076,0.4478890895843506,0.6917442465917211,1791552517618184524,
-0.3050273060798645,0.3063744902610779,0.6244660061646673,1791552517649586231,
0.14651799201965332,-0.022181212902069092,0.695423860577507,1791552517677961625,
0.5230881571769714,-0.08273810148239136,0.6772951241211603,1791552517708568089,
-0.051540374755859375,0.27249419689178467,0.6858332729121999,1791552517737757902,
0.008932650089263916,0.7029626965522766,0.6738025523811185,1791552517767731080,
-0.035582542419433594,0.07043617963790894,0.6972945393764126,1791552517797737938,
-0.3232690691947937,0.04974198341369629,0.6922676938358839,1791552517827624488,
-0.041210055351257324,-0.03888273239135742,0.6743856655213909,1791552517857711785,
-0.1398226022720337,0.5671117305755615,0.6098777884655815,1791552517890306483,
-0.06282550096511841,0.5297184586524963,0.7406505340249665,1791552517917492703,
-0.07601350545883179,-0.3307439684867859,0.6993639795390849,1791552517947376133,
-0.3755683898925781,-0.04075288772583008,0.6696586590689918,1791552517977374988,
0.33784574270248413,0.8115678429603577,0.6737990745838002,1791552518006600453,
-0.2880460023880005,-0.13759207725524902,0.6635543582735205,1791552518037265906,
0.18727165460586548,-0.19352716207504272,0.7051451039711868,1791552518067231337,
0.6374599933624268,0.3904142379760742,0.6691533788889364,1791552518098753202,
-0.023872733116149902,0.4259355664253235,0.6559789834305815,1791552518130256876,
-0.41940706968307495,0.40942758321762085,0.7493537119429495,1791552518157280252,
-0.06742388010025024,0.5210723876953125,0.666233258403291,1791552518197137641,
0.18187284469604492,0.033496081829071045,0.6966658846072571,1791552518227098206,
0.14816343784332275,-0.1639057993888855,0.6498235168487699,1791552518258229883,
-0.045592308044433594,0.19039511680603027,0.6133952128341934,1791552518289847356,
-0.34929072856903076,0.2248895764350891,0.6928906650675506,1791552518317492947,
1.086647629737854,0.43903547525405884,0.690139465958624,1791552518347192533,
-0.2343074083328247,-0.06825065612792969,0.6942042418396674,1791552518377109313,
-0.6098535656929016,0.001767575740814209,0.6757841446834543,1791552518406908440,
-0.03545278310775757,0.9230536818504333,0.6517629403209191,1791552518436930460,
0.297124981880188,-0.4067184329032898,0.658718229218255,1791552518467122336,
0.7113567590713501,-0.6892575621604919,0.6415338339626913,1791552518498812888,
-0.08075475692749023,0.8533792495727539,0.6414074054102017,1791552518528408305,
-0.3119288682937622,0.871998131275177,0.6798054435455494,1791552518556889568,
0.08877438306808472,0.2552228569984436,0.688261683207008,1791552518586816662,
0.0274316668510437,-0.4030637741088867,0.7015905995654135,1791552518616843005,
0.04730266332626343,-0.05760788917541504,0.6803599711502952,1791552518646814110,
-0.24276304244995117,0.620200514793396,0.6837276482521261,1791552518676158662,
-0.15177947282791138,0.09786832332611084,0.6692935333877873,1791552518706411011,
0.006945550441741943,-0.21611499786376953,0.6257118605623654,1791552518738565554,
-0.6097644567489624,0.03945159912109375,0.6924737296201032,1791552518766956092,
0.4530128836631775,0.3623631000518799,0.6733934732850225,1791552518795929583,
-0.8030866980552673,0.16207081079483032,0.6381281393117201,1791552518825932274,
0.5638605356216431,0.32842087745666504,0.6640391630364126,1791552518855787489,
0.05087989568710327,-0.17327803373336792,0.6821727544434967,1791552518885910004,
-0.3182903528213501,0.4812625050544739,0.67627407256899,1791552518915735875,
-0.24633681774139404,0.7850611805915833,0.6559801398974051,1791552518946816717,
0.23833370208740234,-0.6244319081306458,0.6454189046145842,1791552518978343663,
0.28107911348342896,0.14321362972259521,0.7279426788705569,1791552519005844770,
-0.11993736028671265,-0.1369960904121399,0.6645353733082933,1791552519035590179,
-0.323108971118927,0.4474713206291199,0.6580864184197306,1791552519065669615,
-0.01079028844833374,0.5145970582962036,0.6575326103847868,1791552519095395419,
-0.03585439920425415,-0.4370265007019043,0.7067654497567322,1791552519125349498,
-0.33090436458587646,-0.10073584318161011,0.6958143711558361,1791552519155271937,
0.09635406732559204,0.5814182758331299,0.6264673349387071,1791552519186400177,
-0.32150202989578247,0.39972585439682007,0.6155285858275336,1791552519218393073,
-0.14320743083953857,0.0066901445388793945,0.7729217512369077,1791552519245137849,
0.1203070878982544,0.17076367139816284,0.6930698540506082,1791552519275035937,
-0.16507792472839355,0.22250235080718994,0.6549267958108269,1791552519305038305,
-0.07977062463760376,0.19314688444137573,0.6732036388448076,1791552519334950556,
0.6190928220748901,0.355709433555603,0.6807887751991298,1791552519364888857,
-0.48826801776885986,-0.17008459568023682,0.6857501471662755,1791552519395000645,
0.13011670112609863,-0.1864614486694336,0.655528144908579,1791552519426438401,
0.10050815343856812,0.7208044528961182,0.6537310611040839,1791552519457854036,
-0.2851555347442627,0.3418801426887512,0.7958666198084012,1791552519483687981,
0.18501025438308716,-0.016632914543151855,0.7062962129801315,1791552519513601252,
-0.4038243293762207,0.1434342861175537,0.6709086078156301,1791552519544557970,
0.02685070037841797,0.40238457918167114,0.6965081975527672,1791552519573522403,
-0.569589376449585,0.22705143690109253,0.6487245723070705,1791552519604432964,
0.097323477268219,-0.23630350828170776,0.6917268206860734,1791552519634439819,
0.12221688032150269,-0.08455032110214233,0.6291148210248071,1791552519666928571,
-0.07529258728027344,0.7037408351898193,0.6881451196479994,1791552519696350017,
-0.3282744288444519,0.5693343877792358,0.719312687157606,1791552519724228763,
-0.11638408899307251,-0.35271716117858887,0.6720452605751845,1791552519754168382,
-0.2407284379005432,0.004618585109710693,0.7125589586739955,1791552519784195167,
-0.10896825790405273,0.44614988565444946,0.6943836210959033,1791552519814113575,
-0.3004525899887085,0.507979691028595,0.654383200037753,1791552519844019956,
0.15751057863235474,-0.049545884132385254,0.6252224308449894,1791552519874606364,
-0.4338566064834595,-0.34773528575897217,0.6339745253511339,1791552519906796466,
0.13025832176208496,0.12808388471603394,0.7596952631689413,1791552519933994143,
-0.11239761114120483,0.46435242891311646,0.6946202646171383,1791552519964171222,
0.5278332233428955,0.24417942762374878,0.6896861542784721,1791552519993768486,
-0.44204646348953247,-0.012981772422790527,0.6759291076984011,1791552520023662532,
0.3535359501838684,0.08044266700744629,0.723725188138,1791552520052667234,
-0.30776387453079224,0.6048601865768433,0.675776463282912,1791552520083857944,
-0.10556477308273315,0.14226078987121582,0.6486293554616911,1791552520114863477,
-0.3051130771636963,-0.5127045512199402,0.6294684911208913,1791552520146425009,
-0.0301971435546875,0.34636420011520386,0.7454112177332406,1791552520173836361,
0.17093390226364136,1.0383896827697754,0.6694604098711583,1791552520203891129,
-0.41278785467147827,0.4097103476524353,0.672339576571184,1791552520243381536,
-0.19289809465408325,0.052673935890197754,0.6159229156975995,1791552520275591179,
0.4208375811576843,0.24792659282684326,0.6472499147864155,1791552520306742498,
-0.3482843041419983,0.13526767492294312,0.7783388966486283,1791552520333336652,
0.22036218643188477,0.7246413230895996,0.6682457879432064,1791552520363076781,
-0.4964054226875305,0.18871855735778809,0.6357501638138712,1791552520393249313,
-0.003376901149749756,-0.4361990690231323,0.6809006782584405,1791552520422992203,
0.11061877012252808,0.07363057136535645,0.6792519929846872,1791552520452944546,
-0.3777484893798828,0.5314769744873047,0.6604045335281944,1791552520482992058,
-0.2889910340309143,0.8499801158905029,0.6278055651553203,1791552520515017216,
0.15857863426208496,0.0222204327583313,0.6671654460081861,1791552520545637123,
-0.07300776243209839,-0.9159194231033325,0.7618504247130184,1791552520572861699,
-0.014547109603881836,0.21576696634292603,0.7040089681517803,1791552520602322954,
-0.4156736135482788,1.1689709424972534,0.6733271169232163,1791552520632634323,
-1.5331438779830933,0.13953804969787598,0.6474517550447554,1791552520662806046,
-0.7431027293205261,-0.41047078371047974,0.6266393940170321,1791552520691538692,
-1.5346606969833374,0.7728641033172607,0.5302302659007375,1791552520722602938,
0.46138912439346313,-0.007289409637451172,0.4919552239392739,1791552520754545371,
-0.22792816162109375,-0.13448935747146606,0.5468140904400485,1791552520782392096,
1.2969536781311035,0.5087276101112366,0.5728579078839102,1791552520811998410,
0.5138094425201416,0.37648338079452515,0.6506521493575179,1791552520842236912,
0.9923688173294067,-0.16791558265686035,0.6380154112167475,1791552520872213234,
0.8496472239494324,-0.14427685737609863,0.6057276634972661,1791552520902188843,
0.18424493074417114,0.2352927327156067,0.5799672478352825,1791552520932104167,
-0.4455149173736572,0.07996714115142822,0.5756295746581707,1791552520962611698,
-1.1327297687530518,0.07999438047409058,0.6042330502815741,1791552520995078731,
0.9645606279373169,0.4179384112358093,0.7669158524229062,1791552521022510118,
-0.16301101446151733,0.35485702753067017,0.6879354714997699,1791552521051617534,
-0.4263458251953125,0.31856662034988403,0.662280568815715,1791552521081823187,
-0.38572508096694946,0.13168936967849731,0.7566556577042363,1791552521111772180,
-0.6543123722076416,0.5462990999221802,0.7871994333226873,1791552521140757574,
0.41347837448120117,-0.24174606800079346,0.6705886781027669,1791552521171689516,
0.007441401481628418,-0.0041735172271728516,0.6458993598717488,1791552521201514748,
-0.5290042161941528,0.18432015180587769,0.5986620851704095,1791552521235155108,
-0.6031386852264404,0.9605750441551208,0.7909212528151579,1791552521261891814,
-0.32897061109542847,-0.16788214445114136,0.7152365994541034,1791552521290543565,
0.6601595282554626,-0.3345544934272766,0.6232409746730554,1791552521322018480,
-0.24653321504592896,0.6781147718429565,0.6547561781833326,1791552521352223577,
-0.35332202911376953,0.7573761940002441,0.6595956367366302,1791552521382211196,
-0.15002542734146118,0.10611778497695923,0.6763641072013764,1791552521411333009,
0.24855190515518188,-0.23001301288604736,0.6305503983953747,1791552521442435589,
-0.575838029384613,0.06166619062423706,0.6621836276091545,1791552521473640547,
-0.590234637260437,0.2187146544456482,0.7245561625710171,1791552521502026195,
0.566745936870575,0.3035467267036438,0.7074297437887741,1791552521531096848,
0.18915247917175293,0.031587958335876465,0.6791738596464211,1791552521561110726,
-0.27712398767471313,0.3873966336250305,0.662872901188483,1791552521591025350,
-0.05804610252380371,-0.591476321220398,0.6651117836009073,1791552521621090775,
0.047279953956604004,0.40527480840682983,0.6980544226700874,1791552521650933510,
-0.20123958587646484,1.1152679920196533,0.6322613377469357,1791552521683120369,
-0.12791293859481812,0.08505016565322876,0.6983870280436165,1791552521710986026,
-0.22733962535858154,-0.4941555857658386,0.6531461978475551,1791552521741245495,
0.2706552743911743,0.5718175768852234,0.7092799875165032,1791552521770690410,
-0.17883390188217163,0.782860279083252,0.689405609835567,1791552521800946408,
-0.07248896360397339,-0.3815951347351074,0.692135884185527,1791552521829574073,
-0.009020030498504639,-0.01655489206314087,0.624961280796168,1791552521860459388,
-0.32193273305892944,0.6060559153556824,0.6684848595840376,1791552521890437843,
-0.11793112754821777,0.8527108430862427,0.6385833811497816,1791552521922453737,
0.2891739010810852,-0.2686479091644287,0.7235883361624483,1791552521950333773,
-0.42018550634384155,0.1670675277709961,0.6840029176417027,1791552521980249197,
0.026173055171966553,0.3131062984466553,0.6865348728299232,1791552522010183922,
-0.23354113101959229,0.5280885100364685,0.7168640135947344,1791552522040087064,
-0.39124929904937744,0.16456228494644165,0.6858696417429437,1791552522070071946,
0.6333096623420715,0.16950011253356934,0.6752846199368094,1791552522100011878,
-0.5088962316513062,-0.2732445001602173,0.6431527045472737,1791552522131908700,
-0.15499871969223022,0.3186183571815491,0.6699627087350968,1791552522162629921,
0.18074524402618408,0.7905648946762085,0.7398396070899204,1791552522189877435,
-0.06521278619766235,0.02723383903503418,0.6766974176701379,1791552522219813736,
-0.08901304006576538,0.18422693014144897,0.6810796817315315,1791552522249731417,
0.13462823629379272,0.4477781057357788,0.6591655731420389,1791552522279679325,
0.203887939453125,-0.039217472076416016,0.6932798014201957,1791552522309641588,
-0.5026533603668213,0.10024476051330566,0.683262839353385,1791552522339588957,
0.20219558477401733,0.5264632105827332,0.6540887768171124,1791552522369606917,
-0.3624216914176941,0.45505744218826294,0.5989260250977732,1791552522402819805,
0.6265681982040405,0.44195061922073364,0.7488012695799153,1791552522429457073,
-0.05842941999435425,-0.22598117589950562,0.6577685779976548,1791552522459343617,
-0.13831502199172974,0.15158867835998535,0.658876602564051,1791552522489319278,
0.12455540895462036,0.6981860995292664,0.6727650501231652,1791552522519227172,
0.17310893535614014,0.4454721212387085,0.7052996593813055,1791552522549174464,
0.03268611431121826,0.049268484115600586,0.7040504543332041,1791552522579183416,
0.05561947822570801,0.28060823678970337,0.6462047717626508,1791552522610436944,
-0.33055973052978516,0.04582357406616211,0.6200075129237167,1791552522642384313,
-0.2861265540122986,0.1962011456489563,0.7573096039938889,1791552522669028579,
0.47567981481552124,0.5001310110092163,0.6915702856241711,1791552522698936000,
-0.27608585357666016,0.17617160081863403,0.673820885231639,1791552522728938510,
0.2875274419784546,0.264110803604126,0.682473576255311,1791552522758863722,
-0.2449953556060791,0.5500542521476746,0.6957432948789011,1791552522788745973,
0.3047647476196289,0.14770156145095825,0.7316942865204727,1791552522817816442,
-0.13739323616027832,-0.26460379362106323,0.6575302097204487,1791552522849602776,
-0.16996431350708008,0.6935794949531555,0.6341057429425297,1791552522882323374,
-1.089091420173645,0.20980995893478394,0.7506798998437437,1791552522918595361,
-1.3523417711257935,0.8862069249153137,0.6795239817687926,1791552522948657538,
-1.1322968006134033,-0.04218477010726929,0.6472060078678816,1791552522978900044,
-1.1180020570755005,0.00831151008605957,0.5447892827763456,1791552523010972467,
-0.3486313223838806,0.3091060519218445,0.5393705489400779,1791552523038684582,
-0.475591242313385,-0.36273807287216187,0.46736031694733926,1791552523068327147,
0.22031408548355103,-0.18346846103668213,0.4724748078431799,1791552523098248571,
1.938272476196289,1.2013680934906006,0.523931860261437,1791552523128158252,
1.1987954378128052,0.5339902639389038,0.6329242967373779,1791552523158481722,
0.7757461071014404,0.03424370288848877,0.6500859454917244,1791552523188267079,
0.49470067024230957,0.4268665909767151,0.6422500000456866,1791552523218855616,
1.0444259643554688,0.7049568295478821,0.5992740882960523,1791552523250820943,
-0.9957910180091858,-0.21027612686157227,0.6751975340759854,1791552523278160646,
-0.4384433627128601,-0.2666037678718567,0.6473652653513201,1791552523307855352,
0.03324335813522339,0.6656033396720886,0.6211880712316085,1791552523338123746,
-0.416206955909729,0.5475338101387024,0.6088924656117812,1791552523367814570,
-0.03343731164932251,0.4329450726509094,0.6356940708381577,1791552523397752324,
0.4657402038574219,-0.07808554172515869,0.6813092063059712,1791552523427683025,
0.00577777624130249,-0.006469070911407471,0.697520661223154,1791552523457512549,
-0.41769951581954956,0.567333459854126,0.6360508426567095,1791552523489574280,
-0.4049798250198364,0.582930862903595,0.6869887432034189,1791552523517565236,
0.22314190864562988,-0.32732200622558594,0.6560686120163338,1791552523547692443,
-0.12639641761779785,0.25138604640960693,0.6748964801717983,1791552523577483539,
0.17317616939544678,1.1613330841064453,0.6640586928340312,1791552523607456553,
-0.2270389199256897,-0.23212355375289917,0.6561172964586585,1791552523637566010,
0.31965363025665283,-0.839684009552002,0.6727652772877029,1791552523667472349,
0.20814937353134155,0.40882283449172974,0.6156295111269393,1791552523698998833,
-0.21737581491470337,1.0098795890808105,0.6015891124816908,1791552523730602403,
-0.16436398029327393,0.7802397012710571,0.7454027992081275,1791552523757333457,
0.285767138004303,-0.47224342823028564,0.6953153309839198,1791552523787583117,
-0.0680118203163147,-0.10984790325164795,0.6727484882855137,1791552523817281569,
0.11185020208358765,0.7176195979118347,0.6306846551188126,1791552523847218794,
-0.35046303272247314,0.06991654634475708,0.5988837812312088,1791552523877269806,
-0.14750981330871582,0.1643865704536438,0.6246710457406086,1791552523907243547,
-0.2709873914718628,-0.17436474561691284,0.6298167660989636,1791552523938702514,
0.21409326791763306,0.20749711990356445,0.6679596555212229,1791552523969379581,
-0.1231260895729065,0.5524564981460571,0.7233202162728041,1791552523997397006,
0.9045259952545166,0.614289402961731,0.6867859426202678,1791552524027251748,
-0.01924198865890503,-0.4205136299133301,0.6769699871288822,1791552524057236577,
-0.08552277088165283,0.14122754335403442,0.659376586072785,1791552524087131274,
-0.02426058053970337,1.157361626625061,0.6709308729093637,1791552524116520613,
-0.12076807022094727,0.018819153308868408,0.6353987997374149,1791552524147291868,
-0.5388633608818054,-0.9675085544586182,0.610327334390075,1791552524179226705,
0.49392616748809814,0.32243597507476807,0.723602247216338,1791552524206423819,
-0.11694163084030151,0.5441758036613464,0.6468421176474106,1791552524237184469,
-0.15362143516540527,0.8559291958808899,0.6815721995226143,1791552524266348869,
0.05625885725021362,-0.18445128202438354,0.6765328199640589,1791552524296188310,
0.362229585647583,-0.22356748580932617,0.6938401387558423,1791552524326260842,
-0.5779709219932556,0.369976282119751,0.6609553116344561,1791552524356036894,
-0.006538271903991699,0.3258901834487915,0.6093524312471967,1791552524387021028,
-0.2940409779548645,0.05187487602233887,0.6091482444410488,1791552524418620800,
0.08917641639709473,0.30230140686035156,0.7287150033299525,1791552524446173128,
0.2691025733947754,-0.04051792621612549,0.698353551870984,1791552524475858473,
-0.6459054946899414,0.395821750164032,0.6730818217932981,1791552524505745351,
0.5342088341712952,0.7943098545074463,0.6472567526884839,1791552524535709544,
0.15199363231658936,-0.36862075328826904,0.6857679236274112,1791552524565650241,
-0.0757489800453186,-0.11056703329086304,0.7034792312307367,1791552524595641196,
0.20812201499938965,0.6037970781326294,0.6538413275398475,1791552524627168589,
-0.23611217737197876,0.35406404733657837,0.6288978499572601,1791552524658833881,
-0.2881070375442505,-0.39342761039733887,0.7373658723397672,1791552524685467605,
0.2385462522506714,-0.016702473163604736,0.6638970892774292,1791552524715351957,
-0.33310335874557495,0.6457868814468384,0.6744993133887022,1791552524745361921,
0.33564484119415283,0.897011399269104,0.6968277113599207,1791552524775280768,
-0.1305028796195984,-0.2724784016609192,0.7001915569340448,1791552524805203076,
-0.18366920948028564,-0.4105989933013916,0.6865247950244655,1791552524835214035,
0.040992796421051025,0.3596041202545166,0.6621662735107903,1791552524866961606,
-0.21600621938705444,0.48945868015289307,0.6704178435546905,1791552524897789377,
-0.1571812629699707,0.08526140451431274,0.7222942865319939,1791552524925131143,
0.2686130404472351,-0.040438950061798096,0.657200699181356,1791552524954917769,
0.03324544429779053,-0.07081103324890137,0.7099897248574022,1791552524983905643,
-0.7013087272644043,0.2721971869468689,0.6604879083412946,1791552525014852667,
0.28507333993911743,0.6432800889015198,0.6631330613197645,1791552525044766369,
0.248726487159729,-0.15559625625610352,0.6636933856573852,1791552525075448361,
0.05366295576095581,-0.09029561281204224,0.6684866415738834,1791552525106834180,
0.2251073718070984,0.8944315910339355,0.7268389864195126,1791552525136643171,
-0.1537024974822998,0.21309548616409302,0.731712913838715,1791552525164614338,
-0.18234819173812866,-0.4480752944946289,0.6709681973973088,1791552525193533133,
0.28961801528930664,0.05149984359741211,0.6385186267618882,1791552525224469865,
0.05255967378616333,0.949555516242981,0.6792254757569964,1791552525254445516,
0.3216816186904907,0.4561452269554138,0.6565288631553224,1791552525284358926,
-0.08576112985610962,-0.5932559967041016,0.6620600087112218,1791552525314896099,
-0.06630563735961914,-0.06987184286117554,0.6319331332872711,1791552525346996119,
-0.1991710066795349,0.6144230365753174,0.727551739956512,1791552525374325176,
-0.18129438161849976,0.3894209861755371,0.6833511943755705,1791552525404140519,
0.48876291513442993,-0.04075419902801514,0.6944308357060615,1791552525434141199,
-0.09232497215270996,0.0402834415435791,0.6650614555891271,1791552525463994796,
-0.06932461261749268,-0.12309008836746216,0.6600927756450801,1791552525493970127,
-0.22495460510253906,0.4247763156890869,0.7055296740088498,1791552525522970345,
0.4246770143508911,0.4518747925758362,0.6132462534621594,1791552525554787079,
-0.042402029037475586,-0.4839836359024048,0.6040610467278625,1791552525587218109,
-0.246357262134552,0.4387502074241638,0.7424853341963475,1791552525613860469,
0.39527541399002075,0.7037966251373291,0.6846309232309006,1791552525643730452,
-0.30526524782180786,-0.380515992641449,0.6863377193079201,1791552525673703341,
-0.17485445737838745,-0.37908899784088135,0.6644244144567357,1791552525703573986,
0.11048471927642822,0.5680177807807922,0.6751909304894179,1791552525733549974,
0.1582775115966797,0.8606569170951843,0.7195599465243011,1791552525762533986,
-0.05902278423309326,0.2380053997039795,0.6245907945176952,1791552525794873224,
0.178214430809021,-0.4910905361175537,0.624177739140757,1791552525826116206,
-0.2525683641433716,0.10465312004089355,0.7065637097648364,1791552525853443721,
-0.061516761779785156,0.3929055333137512,0.6609856025501756,1791552525883272122,
0.13192081451416016,-0.2557893395423889,0.5953946629039115,1791552525905922162,
0.43952322006225586,0.040047526359558105,0.7188002362677872,1791552525943223666,
-0.06083190441131592,0.24026674032211304,0.6759590768890733,1791552525973361072,
-0.17950338125228882,0.05513483285903931,0.6840730598850286,1791552526003145301,
0.07192003726959229,0.19705569744110107,0.6264984527352587,1791552526035641368,
0.4063655734062195,0.3242790699005127,0.6823832468357369,1791552526064366084,
0.3007749319076538,0.04716974496841431,0.6679021172522269,1791552526093728772,
-0.42930901050567627,0.46559756994247437,0.6569360283602256,1791552526122906981,
-0.029788076877593994,0.6904309988021851,0.6786636050513413,1791552526152784986,
-0.16690897941589355,-0.4626009464263916,0.7180411842392378,1791552526182754400,
-0.524925708770752,-0.684284508228302,0.6875776046185751,1791552526212937023,
0.3599189519882202,0.8063303232192993,0.6836154222616788,1791552526242913585,
-0.5599618554115295,1.1858983039855957,0.6319186232180377,1791552526275229072,
0.8121218085289001,-0.18925833702087402,0.7594153091215956,1791552526302653629,
-0.48922085762023926,-0.6130110025405884,0.6918535291340387,1791552526332497007,
0.47201287746429443,0.3262571692466736,0.6555876903263481,1791552526362435314,
-0.3569915294647217,0.7177777886390686,0.6358769796421695,1791552526392374123,
0.0675802230834961,-0.1762394905090332,0.6633774782731725,1791552526422574966,
0.6585732698440552,-0.12529832124710083,0.708396676230032,1791552526452326363,
-0.3183860778808594,0.49958091974258423,0.6361653538260941,1791552526483116920,
0.42364436388015747,0.334598183631897,0.6175385696016293,1791552526514924614,
-0.6442306041717529,-0.5095186233520508,0.7574963392611999,1791552526542207604,
0.20133042335510254,0.2751803398132324,0.6630986784013623,1791552526572353507,
-0.1286354660987854,0.4086662530899048,0.6659877439769426,1791552526602055217,
0.007902324199676514,0.47347337007522583,0.6744452693327654,1791552526632124323,
0.042017459869384766,0.31121116876602173,0.6817968901616094,1791552526662211310,
0.02800530195236206,-0.43713611364364624,0.6886331773940193,1791552526691893838,
-0.08095598220825195,-0.3047284483909607,0.6535086299061637,1791552526723397974,
0.3589775562286377,0.690795361995697,0.6532037749193543,1791552526754942500,
-0.3347017765045166,0.8414018750190735,0.7524233038380813,1791552526781894398,
0.17172706127166748,0.07871299982070923,0.6887371779731437,1791552526812842563,
-0.496116578578949,-0.5990092158317566,0.7347053363397635,1791552526842316755,
-0.14829689264297485,-0.1385554075241089,0.6627714425661808,1791552526872414834,
-0.4212397336959839,0.869805634021759,0.6377636470506294,1791552526902426214,
0.18109726905822754,0.1806052327156067,0.6666609887342899,1791552526931571988,
0.1982884407043457,-0.3701688051223755,0.6345385783558833,1791552526962709905,
0.01237952709197998,0.21367675065994263,0.6361920130531467,1791552526993814868,
-0.03499460220336914,0.5324130058288574,0.7078159906588118,1791552527021319697,
-0.7205073237419128,0.3750687837600708,0.643716921121125,1791552527051245003,
1.0009126663208008,-0.12196409702301025,0.6811507630849545,1791552527081291600,
-0.28916919231414795,-0.23399096727371216,0.7004401399235102,1791552527111205097,
-0.7076027393341064,0.10574901103973389,0.681668724474528,1791552527141098535,
0.3205529451370239,0.46557843685150146,0.6660675299187725,1791552527170655820,
-0.23780542612075806,-0.05653965473175049,0.6245145435961693,1791552527202677613,
0.8922184705734253,0.21215671300888062,0.7355373167086556,1791552527230975754,
-0.18574631214141846,0.4882187843322754,0.6839879827733156,1791552527260932949,
-0.39169514179229736,0.07884132862091064,0.6656780548480725,1791552527290797583,
0.1479051113128662,0.15255403518676758,0.6755042695861335,1791552527320946324,
0.12161225080490112,-0.2479429841041565,0.6970130463764665,1791552527350732867,
-0.21523630619049072,0.09380161762237549,0.6625125241050447,1791552527380741349,
-0.18869298696517944,0.7545924782752991,0.6380290506294224,1791552527410741188,
-0.35302311182022095,0.05434882640838623,0.6095684360085287,1791552527442922677,
0.18353056907653809,-0.09650182723999023,0.7378320332627932,1791552527470701662,
0.26020318269729614,0.28205549716949463,0.709072238315029,1791552527499626046,
-0.0916253924369812,0.5199662446975708,0.6633266184869355,1791552527530423430,
-0.6386996507644653,0.34351497888565063,0.6721611063266205,1791552527560311007,
0.8333225846290588,-0.18139320611953735,0.6840776277429762,1791552527590290835,
-0.0964745283126831,-0.3652727007865906,0.6945948334681344,1791552527620282340,
-0.23975330591201782,0.22846662998199463,0.6481630042913921,1791552527650914078,
0.08434683084487915,0.623128354549408,0.632124800699507,1791552527683251043,
-0.30788660049438477,-0.02821791172027588,0.7610630619102807,1791552527710175636,
0.002440512180328369,-0.08494681119918823,0.705076858170948,1791552527739992325,
-0.10067576169967651,0.3111235499382019,0.6936585608047829,1791552527769933652,
-0.4413939118385315,0.49001389741897583,0.664793571733552,1791552527799891647,
0.5843573808670044,-0.15108168125152588,0.6748455724759569,1791552527829828974,
-0.19944024085998535,-0.5082565546035767,0.6860976761605025,1791552527859809032,
-0.051443636417388916,0.41682249307632446,0.6668098838769823,1791552527890708167,
-0.45869916677474976,1.0160698890686035,0.6492774082064522,1791552527922737908,
-0.05322456359863281,-0.1318756341934204,0.754794753980354,1791552527949660738,
-0.20646321773529053,-0.7907155156135559,0.6744150901651116,1791552527979574263,
0.24976062774658203,0.5198260545730591,0.7020037789320216,1791552528008515861,
-0.32321321964263916,0.6435486078262329,0.6620433113410387,1791552528038514795,
-0.4203752875328064,0.1600467562675476,0.6273810938350957,1791552528069412351,
0.31359273195266724,-0.2794290781021118,0.6827913949823256,1791552528099416538,
-0.2599020004272461,-0.08477354049682617,0.6844785416864599,1791552528131112892,
0.2918075919151306,0.22366714477539062,0.6663162343560703,1791552528162228791,
0.05703657865524292,0.34925538301467896,0.7402136268271698,1791552528189295559,
-0.03657793998718262,0.15293705463409424,0.6707211939931769,1791552528219127382,
-0.04969054460525513,0.1045261025428772,0.6995742957022542,1791552528248048239,
-0.6221580505371094,0.09386032819747925,0.6953855426385386,1791552528278067720,
-0.10551124811172485,0.2364709973335266,0.6552688085500276,1791552528308937648,
0.4534043073654175,0.10606926679611206,0.6412923858526446,1791552528338969755,
0.4323462247848511,-0.5833995938301086,0.6187119111344119,1791552528371321740,
-0.2806887626647949,0.6640479564666748,0.7012793205846855,1791552528400924687,
-0.07306909561157227,0.8229111433029175,0.7065059365435038,1791552528428810713,
-0.158500075340271,-0.3651968240737915,0.6676194491238965,1791552528458726495,
0.03242915868759155,-0.41376209259033203,0.688165258240288,1791552528488634716,
0.22445207834243774,0.7035365104675293,0.6717585434630895,1791552528518636791,
-0.14438015222549438,0.6047943234443665,0.666433433484476,1791552528548572139,
-0.4139901399612427,-0.06069016456604004,0.6439435823683066,1791552528579210711,
0.08572494983673096,-0.1647602915763855,0.614114949635769,1791552528610757856,
-0.5582906007766724,-0.09338229894638062,0.765265312619674,1791552528637527641,
0.11994320154190063,0.3113105297088623,0.6660776440298396,1791552528668364779,
0.47792160511016846,0.3215751051902771,0.6670901013186873,1791552528698320648,
-0.233451247215271,-0.12243586778640747,0.6772158906279644,1791552528728276208,
-0.5201645493507385,0.3800334930419922,0.6685995162636666,1791552528758187653,
-0.05004245042800903,0.4811025857925415,0.6906901074711328,1791552528788169380,
-0.11604183912277222,0.1802825927734375,0.7183224809895374,1791552528817811292,
0.04639548063278198,-0.18938982486724854,0.616444098254951,1791552528851065321,
-0.19044560194015503,-0.24534094333648682,0.7301704674680163,1791552528878133244,
-0.36420291662216187,0.39409977197647095,0.6550045087781664,1791552528908338560,
-0.22199589014053345,0.6740562319755554,0.6579462003834539,1791552528937887966,
-0.13084691762924194,-0.21907693147659302,0.6495722940998545,1791552528967874629,
0.11632686853408813,-0.06299465894699097,0.6502209095498015,1791552528997986866,
0.010816335678100586,0.5837279558181763,0.683528382569733,1791552529028202035,
0.1944693922996521,0.24292510747909546,0.6405665845652798,1791552529059097518,
-0.8015362024307251,-0.2531457543373108,0.5847733962890165,1791552529091189414,
0.3561973571777344,0.2921522259712219,0.6944722916494038,1791552529117730782,
-0.6709392666816711,-0.1089901328086853,0.6383546597360388,1791552529147901652,
0.27257275581359863,0.556235671043396,0.6659362803198803,1791552529177743207,
0.2941896915435791,-0.012787222862243652,0.6741148081299174,1791552529207679946,
-0.35709476470947266,-0.27521491050720215,0.6545850819436491,1791552529237560699,
-0.5077714920043945,0.5936737656593323,0.6676004929772672,1791552529267576983,
0.21396255493164062,0.7224825620651245,0.6708974194072875,1791552529299044785,
-0.34836649894714355,-0.08514279127120972,0.6876729043316172,1791552529330245112,
0.23051202297210693,-0.0069849491119384766,0.7377443737895693,1791552529357677700,
-0.4399012327194214,0.227087140083313,0.6304550567828351,1791552529387596286,
-0.7164741158485413,-0.27532339096069336,0.574579980611504,1791552529409637002,
0.3723487854003906,-0.3314010500907898,0.7051296002035754,1791552529437959220,
0.22595852613449097,0.4402674436569214,0.6945012771519484,1791552529468495878,
0.025324583053588867,0.27353596687316895,0.7009617616157422,1791552529497787887,
-0.02812051773071289,0.8297113180160522,0.6470368528086136,1791552529527667916,
0.03887897729873657,-0.5173808932304382,0.6854664025017569,1791552529556532668,
-0.4719545245170593,-0.26022738218307495,0.6712554921419217,1791552529587843209,
-0.12617498636245728,0.8973237872123718,0.6424394844150241,1791552529618870262,
-0.023461461067199707,0.5873366594314575,0.6882422561918842,1791552529646681595,
0.1246080994606018,-0.3448494076728821,0.6712600884842816,1791552529676661920,
0.26691919565200806,0.11414432525634766,0.7003491635754301,1791552529706549393,
-0.5821408033370972,0.044638991355895996,0.6814274852401552,1791552529736435108,
-0.328763484954834,0.2692534327507019,0.6696030552474805,1791552529766430415,
0.03424340486526489,0.5605477690696716,0.6772402639622699,1791552529796498731,
-0.5008443593978882,0.36769962310791016,0.6703370932248697,1791552529827210316,
-0.23574668169021606,-0.0354619026184082,0.6489063908985117,1791552529859583077,
-0.11275088787078857,0.11422771215438843,0.7505346494771028,1791552529886307932,
0.056554317474365234,0.009916901588439941,0.6668631638062616,1791552529916697542,
0.7273038029670715,-0.3719506859779358,0.7295392656881005,1791552529946218465,
-0.3197644352912903,0.27708232402801514,0.6555481169384619,1791552529976068514,
-0.3574623465538025,0.9862642288208008,0.6196358376720275,1791552530005970915,
-0.12220519781112671,0.27220624685287476,0.6166482310810268,1791552530036145563,
-0.21550387144088745,-0.7978779077529907,0.6437787450066794,1791552530066933497,
-0.24167734384536743,-0.12463933229446411,0.6470112953279041,1791552530098837613,
0.505548894405365,1.3890109062194824,0.7579635458870936,1791552530125844878,
-0.023937702178955078,0.11662322282791138,0.6870478011648671,1791552530155727693,
-0.07390117645263672,-0.5118182301521301,0.6690872773907648,1791552530185686275,
0.47719287872314453,0.4042498469352722,0.6546498782516794,1791552530215665683,
-0.5142270922660828,0.44747430086135864,0.6954507337797744,1791552530244542084,
-0.47121185064315796,-0.2689779996871948,0.6722016607178719,1791552530274514395,
0.5468640923500061,0.18548375368118286,0.5917524502115691,1791552530307868498,
-0.17530089616775513,0.3867950439453125,0.6700684380506335,1791552530338369922,
0.07703661918640137,0.48051512241363525,0.7489862779539853,1791552530365437375,
-0.13603413105010986,0.3404720425605774,0.6716490901813664,1791552530395332719,
-0.3515523672103882,-0.18515557050704956,0.6577999916204228,1791552530425228494,
-0.00448000431060791,-0.2985239028930664,0.6684323112085212,1791552530454186277,
0.14677917957305908,0.3995261788368225,0.6517096565835653,1791552530485164202,
-0.04333221912384033,0.7411489486694336,0.7079645928574526,1791552530514512086,
-0.1198391318321228,-0.17974865436553955,0.597984668973988,1791552530547008209,
-0.2468358874320984,-0.22111129760742188,0.6495461320113622,1791552530576956610,
-0.4155687689781189,0.30352306365966797,0.718415118307086,1791552530604928466,
0.4890810251235962,0.7492254376411438,0.6641273121217136,1791552530634880826,
0.11267238855361938,-0.09673583507537842,0.6700085594753997,1791552530664775415,
-0.4790835380554199,0.10827440023422241,0.6807252350083337,1791552530694756356,
0.0042275190353393555,0.5547622442245483,0.6865960118502377,1791552530724687843,
-0.29102426767349243,0.2324838638305664,0.6611820404931905,1791552530756105638,
-0.0821123719215393,-0.4210990071296692,0.6512796411908596,1791552530786981232,
0.29324406385421753,0.17503470182418823,0.7028848284537962,1791552530814618604,
-0.1990267038345337,0.37182360887527466,0.6423017650574692,1791552530844482396,
-0.16729199886322021,0.8034089803695679,0.6704957431936128,1791552530874466384,
0.04207712411880493,0.22337192296981812,0.7037269812712875,1791552530904466780,
-0.23462378978729248,-0.3509969115257263,0.6620225139613153,1791552530934338746,
0.008198440074920654,0.10122191905975342,0.6526277653486829,1791552530964325061,
0.14523690938949585,0.3755197525024414,0.637947822992921,1791552530995440769,
-0.2669881582260132,0.6475921869277954,0.6470772626614278,1791552531027061299,
-0.02981477975845337,-0.23283183574676514,0.7696945760737157,1791552531054246079,
-0.07287400960922241,0.16473686695098877,0.6677894852819525,1791552531084165027,
-0.09151709079742432,0.6730841398239136,0.6582028436010856,1791552531113995180,
-0.06688553094863892,0.6592037081718445,0.6574943111233214,1791552531143978250,
0.9072403907775879,-0.5552560091018677,0.6935028475382896,1791552531173870050,
-0.6407789587974548,0.43641191720962524,0.6474194182102071,1791552531203943729,
0.015831351280212402,1.1347697973251343,0.6140623288450091,1791552531235129813,
-0.46315574645996094,0.04492330551147461,0.6403741928328907,1791552531266510616,
-0.4943336844444275,-0.5718494057655334,0.7412336557159437,1791552531293769964,
0.5180507302284241,0.19529062509536743,0.6723968201542271,1791552531323638587,
-0.4730132222175598,0.6106249094009399,0.6941642295003552,1791552531353559281,
0.12969553470611572,0.39092105627059937,0.6763631014277769,1791552531383569624,
0.3794736862182617,0.13112103939056396,0.6912144094231089,1791552531413451809,
-0.13512098789215088,0.09381550550460815,0.6843213702193859,1791552531443465301,
0.1026274561882019,0.3536253571510315,0.6214420885797205,1791552531475187905,
0.11975252628326416,0.42278146743774414,0.6478932662263706,1791552531505801065,
0.138372540473938,0.17715823650360107,0.7691400962632483,1791552531533299612,
-0.737169086933136,-0.2756615877151489,0.7061972146180264,1791552531562219679,
0.16735953092575073,1.062813401222229,0.5697935966551403,1791552531585285992,
-0.2893067002296448,0.5330036282539368,0.6775500914914613,1791552531623136660,
0.573291003704071,0.28798043727874756,0.6533944987911194,1791552531653312863,
-0.049701988697052,-0.26966404914855957,0.6783671560665198,1791552531683034406,
-0.2719101309776306,0.3843631148338318,0.6182155597883803,1791552531715616206,
-0.30289894342422485,0.8141081929206848,0.7109860318361957,1791552531742949714,
0.1530863642692566,0.12105453014373779,0.6565004704334887,1791552531772800004,
0.119823157787323,-0.23836976289749146,0.7009160736161063,1791552531802799293,
0.04735833406448364,0.3248959183692932,0.7166191054159692,1791552531832713806,
-0.5489663481712341,0.4324148893356323,0.694499734749011,1791552531862702517,
-0.2828220725059509,0.21739894151687622,0.6686822604615807,1791552531892684359,
0.11527019739151001,-0.02899986505508423,0.6589949389294705,1791552531923183299,
-0.12553244829177856,0.19300544261932373,0.6362805433389866,1791552531955272346,
0.021553874015808105,0.5947547554969788,0.7372218611402818,1791552531982722419,
-0.018484890460968018,0.3666011095046997,0.7049901802482191,1791552532011536596,
-0.3871682286262512,-0.17408376932144165,0.5584816258403549,1791552532035869542,
0.05720531940460205,0.23991531133651733,0.7695569780560156,1791552532062603816,
0.5082406997680664,0.8484691381454468,0.7010903923765454,1791552532092370202,
-0.05880099534988403,0.5207716226577759,0.6861650876310007,1791552532121514804,
0.12525367736816406,0.2641882300376892,0.6500207680799159,1791552532151509502,
0.22966134548187256,-0.5368514657020569,0.6693113871620726,1791552532182472185,
-0.7509424090385437,0.7505861520767212,0.7280377430379326,1791552532212106121,
0.4364176392555237,0.9517856240272522,0.6694723509880877,1791552532243072419,
-0.19412946701049805,-0.14042013883590698,0.6346083544862332,1791552532274820453,
0.2267296314239502,-0.9088472127914429,0.750157500007389,1791552532302553754,
-0.007761657238006592,0.841031014919281,0.6947820080992635,1791552532332594615,
-0.19175583124160767,0.6259221434593201,0.6904416738186555,1791552532361994980,
0.24955445528030396,-0.12016600370407104,0.6568249488719686,1791552532392003257,
-0.131791889667511,0.20644599199295044,0.655272380210375,1791552532421846239,
-0.31673187017440796,0.43943583965301514,0.6666567483214308,1791552532451697655,
0.1230461597442627,0.259580135345459,0.6255518040018263,1791552532483423185,
0.4616459608078003,0.274600625038147,0.6303233046955541,1791552532514774673,
-0.032147884368896484,0.077231764793396,0.7708208142138088,1791552532540500735,
-0.21972119808197021,-0.27040374279022217,0.6365406773385315,1791552532571492441,
-0.0169069766998291,0.6499063372612,0.6826020380758498,1791552532601405827,
0.25116950273513794,0.4514574408531189,0.692888253389174,1791552532631325289,
0.21918141841888428,0.2504975199699402,0.6817951678935209,1791552532660331125,
-0.3336138129234314,-0.16651493310928345,0.6262533852714584,1791552532691233453,
-0.28989261388778687,0.5336396098136902,0.6428351325985536,1791552532723151225,
0.11658132076263428,0.8363471031188965,0.7317919824171133,1791552532751351615,
0.07760864496231079,-0.33508116006851196,0.6619064480751056,1791552532781236569,
-0.3900507092475891,-0.3460767865180969,0.6556774060592702,1791552532811026399,
0.296869695186615,0.6810533404350281,0.6790240027701664,1791552532840970494,
-0.7191047072410583,0.39935463666915894,0.7282524116108409,1791552532870955342,
0.136477530002594,-0.08086162805557251,0.7081793252029376,1791552532901208202,
0.5474381446838379,0.1617293357849121,0.6642132970686215,1791552532931439783,
-0.5915948152542114,0.39516061544418335,0.6334997366105872,1791552532963191942,
0.6563225388526917,0.6379376649856567,0.7701318650825039,1791552532990810963,
0.3308144211769104,0.230033278465271,0.6871471488256917,1791552533020680168,
-0.16684138774871826,-0.11410975456237793,0.6418746133613736,1791552533050664587,
-0.4688413739204407,-0.09831321239471436,0.6757190703568099,1791552533079600860,
-0.23447930812835693,0.9290706515312195,0.6849241924554934,1791552533110449713,
0.22916674613952637,0.10646694898605347,0.6928623603079195,1791552533140437816,
0.47375553846359253,0.2851932644844055,0.6492615801723294,1791552533171265135,
-0.05384403467178345,0.13843834400177002,0.6401924699305466,1791552533202035263,
-0.42007720470428467,0.5207958221435547,0.7003303005449443,1791552533230310900,
-0.2028942108154297,0.6581521034240723,0.686273873421732,1791552533260165220,
0.32372283935546875,-0.254504919052124,0.6977582497033438,1791552533290131229,
0.009651243686676025,-0.014748454093933105,0.6813048333827679,1791552533320097502,
-0.0686420202255249,0.7023415565490723,0.6768144058578062,1791552533350008453,
0.08502459526062012,0.13921338319778442,0.7146464586781138,1791552533380049788,
0.023186564445495605,0.18123316764831543,0.6605232705064665,1791552533411288656,
-0.09563237428665161,0.2722023129463196,0.6315894843658452,1791552533443685201,
-0.5601306557655334,0.6063688397407532,0.7875493570909367,1791552533469868642,
0.3530352711677551,-0.016665339469909668,0.6777138455300781,1791552533499814744,
0.3232128620147705,0.0030454397201538086,0.6683936916411087,1791552533529697737,
-0.31204545497894287,0.3060181736946106,0.6640399056114015,1791552533559689812,
-0.3212723135948181,0.34961026906967163,0.6533495921163125,1791552533589643970,
0.04390382766723633,0.21158313751220703,0.6926653179437778,1791552533619582417,
-0.0760413408279419,-0.04498177766799927,0.6477786009684968,1791552533651081802,
0.7379956841468811,0.5942142009735107,0.6246905479387327,1791552533682230936,
-0.18510597944259644,0.2125675082206726,0.744680231902069,1791552533708511133,
-0.6207664012908936,0.42523956298828125,0.6466747891007517,1791552533739368215,
0.3362255096435547,0.42209261655807495,0.6898957661107582,1791552533769264196,
-0.2274928092956543,-0.15831762552261353,0.6888791916585276,1791552533799227234,
0.28945016860961914,-0.07278931140899658,0.679579007996528,1791552533829192474,
-0.0391385555267334,0.8665505647659302,0.6806214509934334,1791552533859162393,
0.43928754329681396,0.11646366119384766,0.6406784615806383,1791552533891923585,
0.10582560300827026,-0.38365256786346436,0.7094482188795441,1791552533921188136,
0.11587977409362793,0.4353289008140564,0.7390037700276898,1791552533948940467,
-0.4560096263885498,0.6840107440948486,0.6773016702114824,1791552533978937464,
0.13747990131378174,-0.010727405548095703,0.6987020606657582,1791552534008866543,
0.4487120509147644,-0.07404547929763794,0.7176306961233324,1791552534038811846,
-0.007053077220916748,0.597521960735321,0.6764424492261077,1791552534068802954,
-0.20774149894714355,0.25973570346832275,0.633655970126449,1791552534099060883,
-0.26661133766174316,0.03041917085647583,0.6041054742170845,1791552534131086903,
0.4671128988265991,-0.1566670536994934,0.7462394122873615,1791552534158754616,
0.3515040874481201,0.6764363646507263,0.7305520885352549,1791552534187520766,
0.16971701383590698,0.37787574529647827,0.6599856578245306,1791552534218627012,
-0.45176100730895996,0.2475026249885559,0.6714102722931553,1791552534248436244,
0.13407158851623535,0.30530816316604614,0.6917453904327234,1791552534278398726,
0.20279216766357422,-0.28248703479766846,0.7010656347911627,1791552534308347232,
-0.32401061058044434,0.33342963457107544,0.6207222845957617,1791552534339774557,
0.3995857834815979,0.4552937150001526,0.5935209532157512,1791552534371093467,
-0.6355114579200745,-0.2616174817085266,0.7089248260466218,1791552534398325263,
-0.024086415767669678,-0.0007629990577697754,0.6757461351193002,1791552534428122571,
0.10573381185531616,0.6792044639587402,0.6908483775784618,1791552534458064075,
0.2210502028465271,0.5589263439178467,0.6749884934897636,1791552534488008651,
0.22242695093154907,-0.2937256097793579,0.6613236335215403,1791552534518040845,
0.5928162932395935,-0.19615215063095093,0.6865632805011255,1791552534548095616,
-0.07099419832229614,0.41718924045562744,0.6605454419146786,1791552534579087837,
-0.30394214391708374,0.4415283799171448,0.5806221106334883,1791552534611113649,
-0.07773256301879883,-0.00048291683197021484,0.6883920711572611,1791552534638017027,
0.17421317100524902,-0.4747644066810608,0.6600391219892436,1791552534667957575,
0.0689886212348938,0.8554341793060303,0.6406198168242678,1791552534697970847,
0.19038403034210205,0.5905715227127075,0.6568162052545428,1791552534727949364,
0.1170547604560852,0.6693657636642456,0.6569278775833284,1791552534758167459,
0.5545704960823059,0.13859546184539795,0.6547863887903878,1791552534788198244,
-0.12039315700531006,-0.5277450084686279,0.649028923025414,1791552534819329409,
-0.3229336738586426,0.029642879962921143,0.6622940952531406,1791552534850062383,
0.43409401178359985,1.1452386379241943,0.7223158772894493,1791552534878072469,
-0.19840121269226074,0.380135178565979,0.6819753527583838,1791552534907714102,
0.42771172523498535,-0.37611109018325806,0.6871063202751588,1791552534937715436,
-0.4469830393791199,-0.01964932680130005,0.6762057722433163,1791552534967720454,
-0.16817080974578857,0.672766387462616,0.6548546724542562,1791552534997679621,
0.49132126569747925,0.20509052276611328,0.6561836299635374,1791552535027697572,
0.22622889280319214,-0.517915666103363,0.6429649123792759,1791552535059052931,
0.22104215621948242,0.2509845495223999,0.7243260214951096,1791552535087079274,
-0.2805294990539551,0.8376284837722778,0.6576650029521895,1791552535116899459,
-0.011789441108703613,-0.04785919189453125,0.6588737033606071,1791552535146921434,
-0.23686504364013672,-0.7305588126182556,0.6749144483570749,1791552535176849706,
0.585369348526001,0.45226824283599854,0.6635299698307835,1791552535206814874,
-0.09402960538864136,0.4442750811576843,0.6386243995333413,1791552535236698774,
-0.46478205919265747,0.4781152606010437,0.6292452156620668,1791552535267173390,
0.03851735591888428,0.4683825373649597,0.6082106550917489,1791552535299488581,
0.028345823287963867,-0.6314085721969604,0.7594827801465113,1791552535326669678,
-0.09454655647277832,-0.09854590892791748,0.7132764341170338,1791552535355502923,
0.4558641314506531,0.9230270981788635,0.7067304347929516,1791552535384515781,
0.1373158097267151,0.4743216633796692,0.6405948117130544,1791552535416387744,
0.24940454959869385,-0.33439791202545166,0.6782321847194365,1791552535446349941,
-0.3773171305656433,0.1639115810394287,0.6798998805768468,1791552535475572224,
-0.15997350215911865,0.5910232663154602,0.620676394251091,1791552535507229843,
-0.05822664499282837,-0.046333253383636475,0.611440265563911,1791552535539097816,
0.10732811689376831,-0.4489394426345825,0.7138196903938113,1791552535566289347,
0.15618813037872314,0.10108602046966553,0.6964672840013011,1791552535596037872,
-0.30038201808929443,0.7462143898010254,0.6768281777266104,1791552535626005916,
0.274677038192749,0.23329299688339233,0.6359434897858081,1791552535655942206,
-0.007115781307220459,-0.9102808833122253,0.645781132431361,1791552535685942817,
0.43899452686309814,0.2775839567184448,0.6654397485773337,1791552535715878134,
-0.5096021294593811,0.6966168880462646,0.6632103619867041,1791552535747953326,
0.10256081819534302,0.4914059042930603,0.6641917927234057,1791552535779135998,
-0.06590646505355835,0.1193740963935852,0.7173144061656117,1791552535805758957,
-0.27049416303634644,-0.7863724231719971,0.6654516331966267,1791552535835640126,
-0.05777621269226074,0.02366483211517334,0.697967847749811,1791552535865629638,
0.4642212986946106,0.9138979315757751,0.7195468513851261,1791552535894523350,
-0.1262516975402832,-0.08497041463851929,0.6374437024305982,1791552535925490236,
-0.4179338216781616,-0.21384471654891968,0.6894644030188017,1791552535954514604,
0.20880800485610962,0.49482667446136475,0.6382763952195855,1791552535987225841,
0.15215444564819336,0.4580061435699463,0.6826866357026039,1791552536017350794,
0.0833095908164978,-0.07193911075592041,0.7033738192449662,1791552536045258298,
0.38082391023635864,-0.25680220127105713,0.6451006910250171,1791552536075190627,
-0.3774474263191223,0.20010405778884888,0.6592646086106033,1791552536105176566,
-0.37092697620391846,0.5989221334457397,0.6794183715833978,1791552536135080846,
0.17562109231948853,-0.08469855785369873,0.6687394976068236,1791552536165066542,
-0.051609933376312256,-0.40615594387054443,0.6280868741474251,1791552536195843074,
0.12119531631469727,0.3536635637283325,0.6348648034851541,1791552536227383207,
-0.1786421537399292,0.47628915309906006,0.7681698571083321,1791552536254950210,
-0.24980932474136353,0.16979694366455078,0.6839290880692586,1791552536284917850,
0.292302668094635,0.0649113655090332,0.6539558319808465,1791552536314794745,
-0.27389687299728394,-0.1230514645576477,0.6400243416028346,1791552536344764267,
0.20109707117080688,0.136208176612854,0.6628538106498075,1791552536374654125,
0.029893457889556885,0.5347801446914673,0.6897821640083808,1791552536404648834,
-0.06520259380340576,-0.21532225608825684,0.6586869936655958,1791552536435397174,
-0.4956551790237427,0.07233792543411255,0.6251740710210606,1791552536466500026,
0.14981752634048462,0.675164520740509,0.7400668704707974,1791552536493530457,
0.12655854225158691,0.28662532567977905,0.6647085297926465,1791552536524404972,
-0.08212935924530029,-0.3611205220222473,0.66078794331807,1791552536554333569,
-0.10902661085128784,-0.005221247673034668,0.6666892156016371,1791552536584323644,
-0.5611448884010315,0.6608937382698059,0.6854318386617664,1791552536614223683,
0.3272795081138611,-0.1963863968849182,0.6660698412762033,1791552536644240211,
0.5705701112747192,0.07800853252410889,0.6422449988857298,1791552536675385171,
-0.2133011817932129,0.07991397380828857,0.6232545231843374,1791552536707689611,
0.4137604236602783,0.7174632549285889,0.7480468673128808,1791552536734083041,
-0.01090306043624878,-0.05379289388656616,0.6830739143186879,1791552536764010339,
-0.3557736277580261,0.24511116743087769,0.6928874081695746,1791552536793922090,
-0.11968410015106201,0.3409903049468994,0.6648032717162241,1791552536823886983,
-0.2035369873046875,-0.10404729843139648,0.6457808258819845,1791552536853901329,
-0.1265016794204712,0.14309215545654297,0.6764990152522347,1791552536883769445,
1.1470190286636353,0.05485266447067261,0.6547232015965664,1791552536915675457,
-0.5940231680870056,-0.177659809589386,0.6443697674525618,1791552536946414507,
-0.04666346311569214,0.33568286895751953,0.7172275736623313,1791552536973588372,
-0.12127697467803955,0.5145487189292908,0.6657244476740671,1791552537003563765,
0.22785961627960205,0.36770153045654297,0.7218600967633552,1791552537032465467,
0.16894757747650146,-0.42938166856765747,0.6583167819025993,1791552537063418394,
-0.11878490447998047,0.04953336715698242,0.6643759864220855,1791552537093358371,
-0.42981356382369995,0.8250621557235718,0.6738302203850269,1791552537123355650,
-0.07206612825393677,-0.15045195817947388,0.6102596056001133,1791552537155769698,
0.09670758247375488,-0.3741508722305298,0.7073057948755557,1791552537183276736,
-0.1587020754814148,0.15614670515060425,0.6389646027178442,1791552537213146646,
0.06569564342498779,1.1219199895858765,0.6341095976216652,1791552537243153038,
-0.22705703973770142,-0.14677101373672485,0.6596471842622096,1791552537273069822,
-0.05510979890823364,-0.33669835329055786,0.6856065323949959,1791552537303036033,
-0.09083247184753418,0.517349123954773,0.7160273022188535,1791552537333324368,
-0.1699085235595703,0.5267590880393982,0.6979706958107345,1791552537363461217,
0.09077578783035278,0.03836184740066528,0.6271225691431302,1791552537395759866,
0.12823784351348877,-0.16632050275802612,0.7611856778922358,1791552537422931060,
0.12369328737258911,0.32922637462615967,0.7161279945661787,1791552537452989591,
-0.21350222826004028,-0.18653982877731323,0.676787087838811,1791552537482810440,
-0.28780245780944824,0.06916779279708862,0.6347653338638598,1791552537512817643,
-0.6297386884689331,0.19380837678909302,0.6668994004636025,1791552537542652349,
0.5030025243759155,0.2698674201965332,0.6956969932105767,1791552537572548886,
0.06741702556610107,-0.10700631141662598,0.655590297690184,1791552537603614562,
0.01278609037399292,0.22523736953735352,0.6243984132869236,1791552537635270783,
-0.6499077677726746,0.5384701490402222,0.7213288648859544,1791552537662423215,
0.12629234790802002,-0.19217664003372192,0.664494842576228,1791552537692383586,
-0.5490953922271729,0.20823007822036743,0.5729292479340216,1791552537715988339,
-0.0245358943939209,0.9199676513671875,0.7367867329600335,1791552537742889133,
-0.24066698551177979,-0.010291755199432373,0.6554946549036639,1791552537772817737,
-0.011663734912872314,-0.47961288690567017,0.6879327389935017,1791552537802758058,
-0.47574859857559204,0.48975372314453125,0.6769373172490918,1791552537832779480,
0.13519585132598877,0.5521994829177856,0.6860424717811814,1791552537862317004,
-0.26269465684890747,0.07405364513397217,0.6822694612323217,1791552537892002683,
-0.0553363561630249,-0.3495074510574341,0.6302310941406595,1791552537923880075,
-0.254912793636322,-0.3360216021537781,0.6699769087555176,1791552537955075405,
-0.5051436424255371,0.5939230918884277,0.7517551334402617,1791552537982467752,
0.5325172543525696,0.6578505039215088,0.6698873512245681,1791552538012117007,
0.16631227731704712,-0.24317502975463867,0.654737129015023,1791552538041764605,
-0.32404589653015137,-0.3935549855232239,0.6439959432194405,1791552538071860741,
-0.441598117351532,0.5630233883857727,0.6970370816328822,1791552538101832589,
-0.1755746603012085,0.6507841348648071,0.6891900650877304,1791552538131582777,
0.1515865921974182,-0.5695260763168335,0.6195001730398059,1791552538163316634,
0.2752265930175781,-0.2962132692337036,0.6644163681027442,1791552538193904691,
-0.3345690369606018,0.6590644717216492,0.7215404533889128,1791552538221802146,
0.03414332866668701,0.9196212291717529,0.6716425702259728,1791552538251341956,
-0.07604146003723145,-0.738307774066925,0.6617288287929783,1791552538281300013,
-0.4968016743659973,-0.30427324771881104,0.6518771562896428,1791552538311213948,
0.2719554305076599,1.0501031875610352,0.6758486772794158,1791552538341204385,
-0.16794037818908691,0.30180877447128296,0.668591085788483,1791552538372393621,
-0.030469536781311035,-0.2844449281692505,0.6505824940212335,1791552538403426170,
0.01784592866897583,0.30924737453460693,0.7267512010451302,1791552538431576229,
-0.16210424900054932,-0.4246150255203247,0.7297111270059374,1791552538460988650,
-0.7590842247009277,0.35114890336990356,0.685171482505492,1791552538490902133,
1.0667698383331299,0.7161853909492493,0.6521997658149515,1791552538520895046,
-0.0028384923934936523,-0.014905035495758057,0.6576245388075906,1791552538550783270,
-0.5854374170303345,-0.44973963499069214,0.6519670869204389,1791552538580838021,
0.08833879232406616,0.7968947887420654,0.6675101540025397,1791552538611253909,
-0.5883437395095825,0.2522427439689636,0.6391015177520176,1791552538643219511,
0.5882406234741211,-0.586797833442688,0.7002178702650628,1791552538671225193,
-0.37244492769241333,0.541611909866333,0.6827715423964141,1791552538701181240,
0.2878798842430115,0.5292178392410278,0.7110118827949375,1791552538730455659,
-0.573380708694458,0.5439557433128357,0.6825480544437146,1791552538760762517,
0.6393643617630005,-0.5624700784683228,0.6635304099590265,1791552538790645676,
-0.006315052509307861,0.09063565731048584,0.6714262471204389,1791552538820702858,
-0.2953292727470398,0.8817151784896851,0.6459566008595334,1791552538851311242,
-0.12455683946609497,0.2869265675544739,0.6051274242778222,1791552538883682880,
-1.2767949104309082,-0.1829720139503479,0.7678847522360313,1791552538910209305,
-0.036971986293792725,0.34599947929382324,0.6160671712698416,1791552538940135665,
-0.20425885915756226,0.18632930517196655,0.5971071429125258,1791552538970032459,
1.337581753730774,-0.400537371635437,0.7128227924857587,1791552539000015880,
0.3042628765106201,0.07105463743209839,0.7099230829348253,1791552539030011914,
0.23004484176635742,0.4034750461578369,0.5990759093225703,1791552539059909202,
-0.25174784660339355,0.3465379476547241,0.5894849264292459,1791552539091259222,
-0.42849355936050415,0.3772053122520447,0.6169478445230212,1791552539122763761,
-0.3028542995452881,-0.05154985189437866,0.7223466229911677,1791552539149778018,
-0.32397496700286865,0.2078249454498291,0.6491185626641756,1791552539179753529,
-0.46979856491088867,0.6055552363395691,0.6729686985020025,1791552539209632782,
-0.03740161657333374,-0.1741180419921875,0.6874815310321694,1791552539239556502,
0.1789398193359375,-0.3857048749923706,0.7169986449379195,1791552539269558327,
0.2194390892982483,0.500049352645874,0.7077975316410753,1791552539299462986,
-0.2033873200416565,0.7878314852714539,0.6224602268792967,1791552539331663661,
0.026806235313415527,-0.27926039695739746,0.6541146912813932,1791552539361423372,
0.23689061403274536,-0.6239068508148193,0.7317790148833043,1791552539389330188,
-0.3894977569580078,0.4947379231452942,0.6749682934758586,1791552539419240558,
