acc_x, acc_y, angular_z, stamp, 
-0.0059680938720703125,0.0017680525779724121,-9.461364297639769e-11,1791552582373487378,
0.02472865581512451,-0.005415678024291992,-9.044993497615356e-11,1791552582405930463,
-0.0006939172744750977,-0.0029888153076171875,4.645907685724184e-11,1791552582492897082,
-0.01164466142654419,0.0038328170776367188,6.243798941157155e-11,1791552582522795128,
0.008133530616760254,-0.021636247634887695,5.7746719655826045e-11,1791552582552755968,
0.002634763717651367,0.008700430393218994,4.56670526703506e-11,1791552582582774903,
0.01157832145690918,-0.0022974014282226562,4.5176547343709865e-11,1791552582613771809,
-0.00815039873123169,0.004595339298248291,4.11911551140144e-11,1791552582645436455,
0.011519551277160645,-0.017248034477233887,2.1934797583041148e-06,1791552582672610581,
0.011415541172027588,-0.02983337640762329,1.9951035148153294e-06,1791552582702485914,
-0.011940836906433105,-0.0010610222816467285,1.9866013815001954e-06,1791552582732488553,
0.0008065700531005859,-0.008260786533355713,3.4193654354713454e-11,1791552582762357886,
-0.0008543133735656738,-0.013513445854187012,7.900354972557338e-11,1791552582792379130,
-0.011497139930725098,0.0100860595703125,1.0151011326160214e-10,1791552582822302895,
-0.0005826950073242188,0.013906359672546387,1.195511007511925e-10,1791552582854119375,
0.017543435096740723,0.0016084909439086914,1.0675096045891548e-10,1791552582885569911,
0.0012989640235900879,0.005533576011657715,6.799303744507437e-11,1791552582912364840,
0.006602227687835693,-0.012111246585845947,1.2637166745756548e-11,1791552582942300490,
-0.004116833209991455,0.0061064958572387695,-1.042552690257712e-11,1791552582964522095,
0.0031261444091796875,0.0012570619583129883,-9.389866795873449e-11,1791552583001983809,
0.042630791664123535,0.014046847820281982,-1.082323889583556e-10,1791552583031965161,
0.0013251900672912598,0.003395676612854004,-1.9915390020563494e-06,1791552583061895796,
0.01198512315750122,0.007046103477478027,-9.485868656461662e-11,1791552583093465327,
-0.009711146354675293,-0.012719213962554932,-6.153405068031766e-11,1791552583124258141,
0.006588935852050781,0.007144331932067871,-8.55750657035759e-11,1791552583150854011,
0.006741702556610107,0.005365848541259766,-1.0830024249608419e-10,1791552583181981680,
0.0014715790748596191,0.01951974630355835,-1.2006056954518601e-10,1791552583210763694,
0.003498077392578125,0.01214677095413208,-9.96083647764626e-11,1791552583241581980,
0.014435648918151855,-0.004237115383148193,-7.217087065288323e-11,1791552583271680247,
-0.0015651583671569824,-0.006173551082611084,-5.323892630757319e-11,1791552583302271671,
0.019993484020233154,-0.018753528594970703,-4.148520401555717e-11,1791552583333750799,
0.016249120235443115,-0.024026691913604736,-6.399810178564581e-11,1791552583360514993,
0.0107002854347229,-0.007627606391906738,-7.309137228990214e-11,1791552583391301087,
0.012390494346618652,-0.0002365708351135254,-8.196038409445694e-11,1791552583421228337,
0.012297570705413818,-0.009075343608856201,-4.9177195026968454e-11,1791552583451173522,
0.010240733623504639,0.016085684299468994,-2.9094912520965172e-11,1791552583481122682,
-0.04023003578186035,-0.005436956882476807,1.1319945876311947e-11,1791552583511112322,
-0.011412084102630615,0.016104400157928467,-1.6456426081163992e-13,1791552583541473611,
0.010317862033843994,0.033967673778533936,-2.356942341123004e-11,1791552583572507569,
0.01934868097305298,-0.010958313941955566,-3.1280976559033495e-11,1791552583600959903,
0.0012420415878295898,0.0034745335578918457,-1.756603720852717e-11,1791552583630852499,
0.029878437519073486,-0.008994460105895996,1.1092430052619932e-11,1791552583660806528,
-0.006246387958526611,-0.005212068557739258,4.807592622391415e-11,1791552583690741257,
0.025900065898895264,-0.008611917495727539,9.307534965635083e-11,1791552583720718494,
0.007791459560394287,-0.01212388277053833,1.335379107042401e-10,1791552583750738458,
0.016669631004333496,0.002409040927886963,1.7033580393025144e-10,1791552583781443438,
0.001988530158996582,0.004350006580352783,2.489067436885828e-10,1791552583813949153,
-0.028988540172576904,0.011524379253387451,-2.324330726387886e-06,1791552583839588345,
-0.012722492218017578,-0.009970605373382568,3.6038368648883114e-10,1791552583869571199,
0.006895184516906738,0.013455986976623535,3.7338369415229613e-10,1791552583900412942,
0.029839754104614258,-0.035066306591033936,4.216809258103149e-10,1791552583930470385,
-0.009963154792785645,0.002702057361602783,-1.9863672056607586e-06,1791552583960469448,
-0.020921707153320312,0.027693510055541992,5.076397076953886e-10,1791552583990483708,
-0.0012083649635314941,-0.004883408546447754,3.9414743712313423e-10,1791552584020518465,
-0.00854724645614624,0.007504522800445557,-1.8336266422465935e-06,1791552584053020417,
0.009410560131072998,-0.019663691520690918,2.1251659554207357e-10,1791552584080278335,
-0.016028761863708496,-0.010904371738433838,-1.9901943729425757e-06,1791552584110226716,
-0.007038295269012451,-0.01642245054244995,-3.640429967632626e-11,1791552584140181584,
0.02889704704284668,0.012259066104888916,-6.265287440814237e-11,1791552584170255834,
-0.008937418460845947,0.0013723373413085938,-1.9923978782423636e-06,1791552584200173588,
0.005176723003387451,0.01568007469177246,-1.103845794906497e-10,1791552584230650333,
-0.0021889805793762207,-0.011370182037353516,-1.7841200417648245e-10,1791552584261958439,
-0.012910902500152588,0.004728138446807861,-2.0092492597973623e-06,1791552584291626379,
0.0016025304794311523,-0.002695322036743164,-3.1551826858954803e-10,1791552584320199458,
0.005559325218200684,-0.013502895832061768,-2.8702909155120303e-10,1791552584350126343,
0.002063751220703125,-0.013355374336242676,-1.9975417607439023e-10,1791552584380070950,
-0.01405191421508789,0.020981788635253906,-1.9844042147566e-06,1791552584410109109,
-0.001316368579864502,0.01748514175415039,-5.677152832402935e-11,1791552584440023699,
0.016859054565429688,0.006838858127593994,-5.436016284200258e-12,1791552584470137733,
0.022335946559906006,-0.003948628902435303,4.5680852841561e-12,1791552584501486383,
-0.002825498580932617,-0.0004762411117553711,-1.8967888492395857e-11,1791552584529335924,
-0.004617810249328613,-0.02575373649597168,-3.783465476264327e-11,1791552584559197775,
-0.004358112812042236,-0.027466952800750732,-3.216958653137229e-11,1791552584589162630,
0.004744470119476318,-0.002157866954803467,-5.8136115160769495e-12,1791552584619192764,
-0.0022932887077331543,-0.01984018087387085,2.5662493143252987e-12,1791552584649078657,
0.003263413906097412,-0.037470459938049316,-1.3021827068157983e-11,1791552584679005247,
-0.02717411518096924,0.005956172943115234,-1.931539357446628e-11,1791552584709997131,
0.0017099380493164062,-0.026088953018188477,-6.49629436871307e-11,1791552584741916586,
0.00545889139175415,0.0047005414962768555,-1.4269101076532317e-10,1791552584768954143,
0.016041278839111328,0.010377347469329834,-1.3349272491713466e-10,1791552584798847338,
-0.0021532177925109863,0.0052277445793151855,-3.3853215167164975e-11,1791552584828840129,
-0.020223259925842285,-0.007072806358337402,-1.9980685244501863e-06,1791552584858670631,
0.010434985160827637,-0.008658409118652344,-1.991005470387087e-06,1791552584888607429,
0.029946625232696533,0.013018488883972168,7.300185571933553e-11,1791552584918608795,
0.00821596384048462,0.013144731521606445,1.645842896029964e-10,1791552584949609729,
-0.024171531200408936,0.003991365432739258,2.102663365874868e-10,1791552584981553372,
0.008244454860687256,0.010937988758087158,1.626420198071669e-10,1791552585007518185,
-0.024015307426452637,0.0357094407081604,8.376195380791724e-11,1791552585038339576,
-0.005897104740142822,-0.01314765214920044,2.5066930194412197e-11,1791552585068301777,
0.00494915246963501,-0.022346675395965576,-2.682211420942922e-12,1791552585098247611,
-0.009427547454833984,0.014828801155090332,-6.4639138006841675e-12,1791552585128174246,
-0.012598991394042969,0.01682412624359131,0.00011545646351792328,1791552585158113228,
-0.7635945677757263,0.27652567625045776,0.023437223239129397,1791552585190052461,
-0.3593992590904236,1.0056037902832031,0.31918572250560173,1791552585221105726,
-0.015881121158599854,0.8109818696975708,0.8351150222693389,1791552585248000288,
-0.05502521991729736,-0.09387242794036865,1.0403984474858048,1791552585276924387,
-0.021200180053710938,-0.1304885745048523,1.1015722377140609,1791552585307792756,
-0.009266555309295654,0.24112027883529663,1.1651689994737149,1791552585337887556,
-0.2901018261909485,0.0008459091186523438,1.1294599796471299,1791552585367731477,
0.1851215362548828,-0.2693505883216858,1.0976762637327433,1791552585397695096,
-0.009508967399597168,0.09765273332595825,0.9702455342535427,1791552585429753366,
0.10656386613845825,0.018977105617523193,0.9899992285798039,1791552585459622654,
-0.1345873475074768,0.04809325933456421,1.0856528354158796,1791552585486531567,
0.18313175439834595,-0.14709609746932983,0.9268652788566616,1791552585517465012,
-0.23496800661087036,0.07762706279754639,0.9410179207677604,1791552585547383462,
0.31200116872787476,0.2854740023612976,0.9920877428324893,1791552585577398205,
-0.224317729473114,0.02823352813720703,1.016850268513192,1791552585607336280,
-0.15585708618164062,-0.23178380727767944,1.0163400447384516,1791552585638014884,
-0.0037305355072021484,-0.14579927921295166,0.9612847111389056,1791552585670151552,
0.27199387550354004,0.37995171546936035,1.1051158768870515,1791552585697236887,
-0.0738980770111084,0.1951475739479065,1.0106247116325595,1791552585727108189,
0.12576079368591309,-0.11615312099456787,1.0139338055148992,1791552585757137207,
-0.047171056270599365,0.07755744457244873,1.061039370920196,1791552585787064531,
0.2536510229110718,0.06510424613952637,1.0479289085569115,1791552585817011235,
0.21396249532699585,-0.01690298318862915,0.9984518715499203,1791552585847196766,
0.13250666856765747,0.11767083406448364,0.943046039923237,1791552585877693490,
0.0865815281867981,-7.748603820800781e-06,0.9086442270008405,1791552585909660017,
0.2540363669395447,0.0474969744682312,1.0468764304688982,1791552585937490932,
-0.04489457607269287,0.0027387142181396484,0.9993202826825307,1791552585967203808,
0.03528320789337158,0.16875523328781128,1.037302226383464,1791552585996660281,
-0.19190311431884766,-0.1433836817741394,1.0373621411566478,1791552586026602714,
0.42814189195632935,0.07711023092269897,1.0238062001289239,1791552586056481821,
0.19227176904678345,-0.0018320679664611816,1.0391074686268185,1791552586086482154,
0.3996480107307434,0.3939196467399597,1.0606643704805743,1791552586118471805,
0.02379089593887329,0.3628443479537964,1.1638004873663788,1791552586149067837,
-0.25234150886535645,-0.7383301258087158,1.2816962808455705,1791552586176397558,
-0.036348044872283936,0.11427837610244751,1.1370779377354505,1791552586206310624,
-0.23709869384765625,0.28930020332336426,1.1233301727208516,1791552586236169856,
0.39813166856765747,-0.539082944393158,1.0864962857178047,1791552586266175329,
0.23763179779052734,0.13650405406951904,1.0128701216606413,1791552586296111084,
0.4655049443244934,0.16715365648269653,0.9650974418282049,1791552586326041138,
-0.16142559051513672,-0.1085432767868042,0.892537808323564,1791552586358111989,
-0.05735433101654053,0.028301537036895752,0.9770216706511328,1791552586387514893,
0.3348974585533142,0.09933674335479736,0.9545002545572003,1791552586416292507,
-0.34360063076019287,0.061520278453826904,0.9107747146463392,1791552586446068291,
0.7764720320701599,0.10849565267562866,0.9603887092501839,1791552586475743591,
-0.11213749647140503,0.3558434247970581,1.0918306755968767,1791552586505724334,
0.625296950340271,0.5019155144691467,1.2197104466666033,1791552586535917848,
0.27953654527664185,0.1473512053489685,1.3308289599985503,1791552586566076815,
0.19485688209533691,0.3584834337234497,1.3469001744386153,1791552586597795795,
0.3336833715438843,-0.1495826244354248,1.5895608468366191,1791552586625573639,
-0.8801385760307312,-0.5148391723632812,1.4313007485507014,1791552586655444572,
0.7374508380889893,0.03795754909515381,1.3162491217939951,1791552586685404428,
-1.0580931901931763,-0.2364269495010376,1.1253739795819306,1791552586715350645,
-0.33089351654052734,-0.007903456687927246,0.9718845832223443,1791552586745270312,
0.6485434770584106,-0.022533178329467773,0.936051823960586,1791552586775233135,
0.15260028839111328,-0.15878599882125854,0.8491031261464943,1791552586805676634,
0.245228111743927,0.39477914571762085,0.8533048230202429,1791552586838079524,
0.49340564012527466,0.541476845741272,1.063495125212694,1791552586865122469,
-0.25460976362228394,-0.374076247215271,0.9820693622507826,1791552586895199926,
-0.17450851202011108,-0.5270363688468933,1.0575429510967391,1791552586923963718,
0.10759627819061279,1.0134934186935425,0.9864486823426201,1791552586954938707,
0.5077437162399292,0.7053816318511963,1.020235775860532,1791552586984818201,
-0.2974697947502136,-0.78726726770401,0.9968476149325646,1791552587014929387,
0.13861215114593506,-0.5414910316467285,0.9712699408555321,1791552587045778806,
0.30775129795074463,0.7260535359382629,0.9188963018054179,1791552587078492948,
0.19528663158416748,0.3742799162864685,1.1447807421976735,1791552587104634973,
-0.0974416732788086,-0.23928898572921753,1.0085688694159605,1791552587134601681,
-0.18164700269699097,-0.020092666149139404,0.9939452702954938,1791552587164617784,
-0.4457871913909912,0.14138364791870117,1.0115863658432704,1791552587193516846,
0.34144121408462524,0.03306174278259277,0.9393359112808082,1791552587224421905,
-0.14132505655288696,0.030024826526641846,1.0064023295438917,1791552587254394985,
-0.1708499789237976,0.1919066309928894,0.9828996286184851,1791552587285707015,
0.3015652894973755,0.02117866277694702,0.9867257141340351,1791552587316752642,
0.03490757942199707,0.2887229323387146,1.056859335726484,1791552587354210113,
0.39635372161865234,0.3459792137145996,1.0274515353854612,1791552587384219166,
0.17706090211868286,0.2264317274093628,1.0366013000611949,1791552587414118583,
0.015706419944763184,0.08570587635040283,0.9319528126453852,1791552587445690316,
-0.28151023387908936,0.00031250715255737305,0.9750202401431561,1791552587476090117,
0.38186901807785034,0.33010125160217285,1.0683888966991502,1791552587513948006,
-0.29882675409317017,0.5986890196800232,1.000049343432233,1791552587543902377,
0.5065487027168274,0.01521223783493042,0.9917988803146207,1791552587573893381,
-0.13444799184799194,-0.020061194896697998,0.9345310457686878,1791552587605963850,
-0.16074377298355103,-0.046348750591278076,1.0682146872413218,1791552587633760090,
0.15382909774780273,0.16506963968276978,1.025907866522144,1791552587663628557,
0.32219910621643066,-0.145188570022583,1.0524257827113723,1791552587693597985,
-0.5640494227409363,-0.3681744337081909,1.0441934742031154,1791552587722506240,
-0.1705213189125061,0.2018147110939026,0.9678438051974448,1791552587753465960,
0.24203377962112427,-0.17062509059906006,1.029640205229038,1791552587783443211,
-0.1583659052848816,0.1354295015335083,0.9819195397852379,1791552587813687793,
-0.4430777430534363,-0.0468517541885376,0.9164178693633593,1791552587846136388,
0.9065155386924744,0.09149825572967529,1.0744014059994755,1791552587873758946,
-0.5904623866081238,0.030867338180541992,1.026592363514662,1791552587903256755,
-0.18783462047576904,-0.059703290462493896,1.0033214234738717,1791552587933199953,
0.33997058868408203,0.40971678495407104,0.9882270636217306,1791552587963171068,
0.4582441449165344,0.15327835083007812,1.0170120616218628,1791552587993060137,
-0.9815753698348999,0.03364497423171997,0.9710565275680879,1791552588023049186,
0.4798181653022766,0.20483142137527466,0.9462427300849204,1791552588053711289,
0.06848376989364624,0.3115730285644531,0.9385289925659941,1791552588085718961,
-0.49842894077301025,0.5070512294769287,1.091323530696129,1791552588113004646,
-0.1508270502090454,0.45019543170928955,1.0201320231688542,1791552588142841141,
-0.18624919652938843,0.3426980972290039,0.8687270044647429,1791552588166139080,
0.11800718307495117,0.74948650598526,1.1724065095777079,1791552588192809872,
-0.5282637476921082,0.448336124420166,1.0151305683027665,1791552588222696830,
0.07095885276794434,-0.2613332271575928,1.0042300662233778,1791552588252594003,
-0.8714302778244019,0.152870774269104,0.9904573109664382,1791552588282579999,
0.3749803304672241,0.17194360494613647,1.0071357343804421,1791552588312490202,
-0.5291011929512024,-0.09396076202392578,1.0002490978334462,1791552588342480207,
0.2879255414009094,0.06752020120620728,0.9632558719592065,1791552588374230857,
-0.15735656023025513,0.5527336001396179,0.9776072359230658,1791552588405765648,
0.11042827367782593,0.24655449390411377,1.1118906064363254,1791552588432365928,
-0.4117807149887085,0.11547839641571045,0.9616437430951335,1791552588462323289,
0.47586679458618164,0.14441543817520142,0.9636060211596907,1791552588492240852,
-0.5244448781013489,-0.12592017650604248,0.9389895243601472,1791552588522189501,
-0.396135151386261,0.3829990029335022,0.9428949405905414,1791552588552345870,
0.25151365995407104,0.1628410816192627,0.9487339453157368,1791552588582302356,
-0.04816114902496338,-0.047209978103637695,0.8653854408394678,1791552588614411048,
-0.4609839916229248,0.2380833625793457,0.9422894261602014,1791552588644079258,
0.5512703061103821,0.15375804901123047,1.0153977330037047,1791552588671931339,
-0.30555790662765503,0.5247700810432434,0.9440025291905644,1791552588701798770,
0.2219037413597107,0.6024682521820068,0.9299856329673302,1791552588731774455,
-0.8749921917915344,-0.49688225984573364,0.8989112630775491,1791552588761694015,
0.9876160025596619,-0.20427203178405762,0.8809573630929666,1791552588791681311,
-0.5592477917671204,0.7922271490097046,0.8478991786391117,1791552588821794069,
0.2818129062652588,-0.2852349877357483,0.8295055759756429,1791552588853722206,
-0.24401605129241943,0.6634052395820618,0.9767216734046462,1791552588881606701,
0.7697645425796509,0.6050710082054138,0.8808396194162531,1791552588911629156,
-0.30966633558273315,-0.05239289999008179,0.8279727168193679,1791552588941425653,
0.2410312294960022,0.20011389255523682,0.8231176689237768,1791552588971701801,
0.3321659564971924,0.20115989446640015,0.8325513918291271,1791552589001272122,
-0.3366248607635498,0.05826908349990845,0.8485111224365597,1791552589031465518,
-0.27396881580352783,0.6017425060272217,0.8511738438802421,1791552589062185148,
0.016410470008850098,0.07998877763748169,0.7929661823636261,1791552589093758722,
-1.047865867614746,0.0949559211730957,0.9136395808471355,1791552589121166360,
0.45898377895355225,0.18182271718978882,0.8330071646730668,1791552589151593820,
-0.12622928619384766,-0.08289659023284912,0.9212248196272579,1791552589191216848,
-0.9472206830978394,0.18517720699310303,0.8777307932893849,1791552589221978823,
1.4445927143096924,0.6825301647186279,0.8269851059848419,1791552589254361375,
-0.6835827827453613,-0.5659867525100708,0.9629787755717986,1791552589281165031,
0.016082704067230225,-0.0787542462348938,0.8595221315492501,1791552589310748323,
-0.18284553289413452,0.856341540813446,0.8325044799425617,1791552589341094813,
-0.4458519220352173,0.2958752512931824,0.8694300332083216,1791552589370756693,
0.15596932172775269,0.3452841639518738,0.8662975373967348,1791552589400800118,
-0.025595664978027344,0.29758089780807495,0.8380614826428119,1791552589430749877,
1.230630874633789,-0.04705309867858887,0.7593446450169916,1791552589461954124,
0.9392457008361816,-0.18430852890014648,0.7408808026678126,1791552589493800052,
0.08271652460098267,0.7631477117538452,0.8414731978953511,1791552589520715855,
-0.43231886625289917,0.3860904574394226,0.7771809866727035,1791552589549560172,
-0.29435843229293823,0.5078089833259583,0.7611095337848977,1791552589579613170,
0.2754135727882385,-0.10178834199905396,0.6973425739339371,1791552589610446861,
-0.28380101919174194,-0.49643224477767944,0.7183795731986342,1791552589640461809,
-0.2478882074356079,0.4230439066886902,0.7120491543837414,1791552589670460024,
0.32879626750946045,0.4299003481864929,0.6576898731002273,1791552589702285255,
-0.7382944226264954,0.06922131776809692,0.6899638606547852,1791552589732586461,
-0.12189888954162598,0.0874130129814148,0.7506873186304764,1791552589760428896,
-0.30347007513046265,0.6682028770446777,0.7088175293877967,1791552589790368505,
-0.768198549747467,0.029700100421905518,0.65280015492393,1791552589811969136,
0.170063316822052,0.37177765369415283,0.7902410609647316,1791552589839580171,
-0.007307767868041992,0.46596717834472656,0.7409123217407034,1791552589870356734,
-1.0647388696670532,-0.1787284016609192,0.7269128141790941,1791552589900344987,
1.1377097368240356,-0.3697773218154907,0.7259584253229368,1791552589929631615,
-0.8417706489562988,0.5943674445152283,0.6794432763526704,1791552589959662289,
0.3888435959815979,0.7484930157661438,0.6636113726825739,1791552589989910050,
0.004914283752441406,-0.2867699861526489,0.6213538825980925,1791552590022208205,
-0.1144641637802124,-0.294869601726532,0.7724831408982283,1791552590049477942,
-0.5942162871360779,0.4204767942428589,0.7557583544287038,1791552590079429391,
-0.2772139310836792,0.9773964881896973,0.7216963504187123,1791552590109318018,
0.295803964138031,-0.25948554277420044,0.672243951323815,1791552590139295714,
-0.43756818771362305,0.18643784523010254,0.6583943742447933,1791552590169186063,
-0.23078399896621704,0.5362414121627808,0.6782591452883175,1791552590199196229,
0.037949204444885254,-0.07746767997741699,0.640611408112466,1791552590230273119,
-0.8739610314369202,-0.6002028584480286,0.6433619321877935,1791552590261841116,
0.6466616988182068,0.12112098932266235,0.7366125292111101,1791552590289031601,
-0.36963218450546265,0.6629433631896973,0.6727553220651428,1791552590319059756,
-0.3825685977935791,0.862237274646759,0.6690779461736789,1791552590348974116,
1.1925337314605713,-0.10206067562103271,0.663736008487827,1791552590378869293,
-1.0162622928619385,0.013190627098083496,0.6484762559270908,1791552590408778831,
-0.0841570496559143,-0.2089870572090149,0.6390998334672572,1791552590438756374,
-0.20539867877960205,0.4695799946784973,0.5762412080934182,1791552590470387086,
-0.18571317195892334,0.6280617713928223,0.5767511417360014,1791552590501812901,
0.30276745557785034,0.029514670372009277,0.6935194652301663,1791552590528933913,
-0.45467233657836914,-0.5277824997901917,0.6267007515248542,1791552590558579529,
0.1810726523399353,0.2918829321861267,0.6471913676072042,1791552590588436949,
-0.24515622854232788,0.9400486946105957,0.6248403737513728,1791552590618471467,
-0.45666730403900146,0.10696977376937866,0.5874187294908747,1791552590648633884,
-0.4356995224952698,-0.060198307037353516,0.6080172971334364,1791552590678347299,
0.019919991493225098,0.24176931381225586,0.5634560031542934,1791552590710269986,
-0.4373438358306885,0.12382519245147705,0.6134375110784702,1791552590740977178,
-1.0190430879592896,0.1495293378829956,0.6916411338427211,1791552590768277184,
0.2972251772880554,0.3513883352279663,0.6345059510843837,1791552590798088791,
-0.22324275970458984,-0.07096719741821289,0.6244743062195793,1791552590828037095,
-0.23588472604751587,0.18559759855270386,0.6054788464465305,1791552590857968095,
0.1769006848335266,0.7063866853713989,0.5891036788649857,1791552590887931415,
-0.6799120903015137,0.34784841537475586,0.6041036851087074,1791552590917498696,
-0.07678830623626709,-0.1479564905166626,0.547403136621676,1791552590950112820,
0.31527453660964966,-0.2652471661567688,0.6040403194167833,1791552590979924615,
-0.4931904077529907,0.39804911613464355,0.625933921643851,1791552591007761033,
-0.5986300110816956,0.30429607629776,0.5706237304205946,1791552591037675117,
0.7852917313575745,0.21967166662216187,0.5678526973059969,1791552591067602462,
-0.41394633054733276,-0.0722607970237732,0.5802103048957334,1791552591097561858,
-0.021986544132232666,0.5405811071395874,0.5613857308710828,1791552591127563238,
-0.21331661939620972,0.10568892955780029,0.5650852009633562,1791552591157966187,
0.1067955493927002,-0.1182752251625061,0.5466692931012515,1791552591190286112,
0.9102615118026733,0.7791095972061157,0.6357129275479665,1791552591217467626,
0.06911861896514893,0.417447566986084,0.5636101065699609,1791552591247614440,
-0.5512404441833496,0.464485764503479,0.5511798468052106,1791552591277496720,
0.03039604425430298,0.614372193813324,0.5651339026175781,1791552591307300445,
-0.3647521138191223,0.044386327266693115,0.5547006900609818,1791552591337302020,
-0.6348223686218262,-0.11343163251876831,0.5604512143745982,1791552591367116013,
-0.15200573205947876,-0.010781288146972656,0.528893157960863,1791552591398683291,
-0.2672596573829651,0.4797922968864441,0.5613148917713072,1791552591430337178,
0.0034297704696655273,0.5982057452201843,0.664975859711451,1791552591457000676,
0.08245730400085449,0.13194113969802856,0.5441826793085744,1791552591486885181,
-0.4625014662742615,0.07033294439315796,0.5161580943711742,1791552591516803127,
-0.7481823563575745,-0.036255717277526855,0.5160334552988647,1791552591546793668,
0.05330336093902588,-0.31690746545791626,0.5369407934555039,1791552591576750053,
-0.5075023770332336,0.32501208782196045,0.543886635798425,1791552591606683157,
0.5612050294876099,1.0060508251190186,0.5115404312165099,1791552591638052272,
1.032893419265747,-0.11599308252334595,0.5580822770850166,1791552591668877268,
-0.27551186084747314,0.5828050374984741,0.5631897598294704,1791552591705525137,
0.2333850860595703,0.5967941284179688,0.48150028345787754,1791552591736476641,
-0.24032068252563477,0.2871333956718445,0.49797019515298296,1791552591766387519,
-0.40223532915115356,0.3729135990142822,0.4906075315000484,1791552591798351010,
-1.3073601722717285,-0.32105588912963867,0.5288983012206597,1791552591828875157,
0.716938853263855,0.17553222179412842,0.5662743914346727,1791552591866212658,
-0.005207538604736328,-0.17792725563049316,0.5403570316990448,1791552591896364342,
-0.07335317134857178,0.33379191160202026,0.5476263442672521,1791552591926095708,
-0.016663193702697754,0.29611605405807495,0.4768154837559407,1791552591958008725,
0.2790067195892334,0.2834770679473877,0.5212598371402554,1791552591986150652,
0.4539008140563965,0.43771570920944214,0.5202144230077409,1791552592015980642,
-0.6343433260917664,-0.017121434211730957,0.4850487603568129,1791552592045883596,
1.2862755060195923,0.09605097770690918,0.47293233474087365,1791552592076044366,
-0.707199215888977,-0.32150399684906006,0.48541114819005093,1791552592106044010,
0.7832119464874268,0.3925431966781616,0.4841137581725096,1791552592135773852,
-0.0051825642585754395,0.43708765506744385,0.46602296236249874,1791552592165888778,
0.36041712760925293,0.4176138639450073,0.4177672145521748,1791552592198743303,
-0.10077619552612305,0.6100029945373535,0.5379351185970952,1791552592225694874,
-0.8242365121841431,-0.24069571495056152,0.5231326128819445,1791552592255571449,
1.2441083192825317,-0.28772062063217163,0.519236650511506,1791552592285451899,
-0.2733907103538513,0.33949071168899536,0.4828003928446407,1791552592315478920,
-0.3991844058036804,0.11148357391357422,0.4703058387174611,1791552592345368740,
0.31795090436935425,0.016768038272857666,0.49575526138376125,1791552592375587420,
0.1825658082962036,0.7054253816604614,0.47243419690219424,1791552592406327388,
0.135772705078125,0.21859955787658691,0.4490834402210499,1791552592438115033,
-0.33573484420776367,-0.31893497705459595,0.5412020520917671,1791552592465246790,
0.6683124303817749,0.35564714670181274,0.4764727834010854,1791552592495138280,
-0.42371129989624023,0.4644623398780823,0.48517353793387613,1791552592524528738,
-0.1449364423751831,-0.17216825485229492,0.46195343633261565,1791552592555016210,
0.27399712800979614,-0.1868610978126526,0.48920533115451825,1791552592585260166,
-0.008886158466339111,-0.12167000770568848,0.49269035253687293,1791552592614857608,
0.8794311285018921,0.7465037703514099,0.4418089243005962,1791552592646447849,
-0.6652883887290955,-0.19297540187835693,0.44429651359333705,1791552592678134272,
0.30972522497177124,0.6931105852127075,0.5462741940962935,1791552592704716802,
-0.21700161695480347,1.0157133340835571,0.4560115238517924,1791552592734752450,
-0.3340478539466858,-0.25014424324035645,0.45287456551881455,1791552592764647011,
-0.12927007675170898,-0.2955865263938904,0.4677089416060803,1791552592794562613,
0.6350861191749573,0.45974212884902954,0.5086762293177188,1791552592823540197,
0.10228794813156128,0.11073613166809082,0.4820511417065409,1791552592854465893,
-1.0841535329818726,0.2744212746620178,0.4529824219612586,1791552592885941500,
-1.0351440906524658,0.07836055755615234,0.4522290325365767,1791552592916371673,
-1.0845152139663696,-0.05085945129394531,0.45843534914030526,1791552592953377498,
-0.760191798210144,0.34314489364624023,0.36831614905839355,1791552592984327242,
-0.09258049726486206,0.04471546411514282,0.34907275641853214,1791552593014234736,
1.3797705173492432,0.5255557894706726,0.4085154599763635,1791552593045954770,
1.448440432548523,0.5286781191825867,0.5154055855462211,1791552593074150830,
1.2004355192184448,-0.2065233588218689,0.40524572083334054,1791552593104047885,
0.3928285241127014,-0.4513680934906006,0.35306256552641163,1791552593134014993,
0.334094762802124,-0.66129070520401,0.3548683151153718,1791552593163893523,
0.09594148397445679,0.42702192068099976,0.3492371801052977,1791552593193840863,
-1.5484005212783813,0.24802541732788086,0.3450746243091637,1791552593223772587,
-0.1512376070022583,0.034857332706451416,0.37620011772348444,1791552593254205887,
-0.014747321605682373,0.24594557285308838,0.3587547250852094,1791552593286381011,
-0.18324017524719238,-0.025030314922332764,0.4512153581648415,1791552593313679869,
0.22537153959274292,-0.015328049659729004,0.472873485569492,1791552593343599011,
-0.29680413007736206,0.6125528216362,0.4828430562251834,1791552593372528262,
0.16057419776916504,0.8689852356910706,0.47124441423522884,1791552593402538086,
-1.4426400661468506,0.19547683000564575,0.44285614812888285,1791552593433397019,
0.5556657314300537,-0.056257426738739014,0.44154842421557056,1791552593463346106,
0.03005373477935791,0.11781424283981323,0.4286850636405314,1791552593494229617,
-0.694343090057373,-0.14869946241378784,0.3971698489554182,1791552593525951526,
0.05457025766372681,-0.19156116247177124,0.44137680328553697,1791552593553256463,
-0.4374372363090515,0.22582173347473145,0.4017194631955533,1791552593583179780,
0.15499168634414673,-0.11123281717300415,0.41053940448511517,1791552593613088710,
-0.42042309045791626,-0.08346313238143921,0.4114980458635075,1791552593643031776,
1.0009288787841797,0.09874618053436279,0.41977194886865055,1791552593672977983,
-0.506057620048523,0.8661397695541382,0.4118690788301279,1791552593702922367,
-0.029205322265625,-0.0917043685913086,0.39371462691623416,1791552593734412395,
0.3009446859359741,0.37164026498794556,0.3778738660980232,1791552593765964375,
-0.23551785945892334,0.8808680772781372,0.4457710145397476,1791552593792879837,
-0.003809213638305664,-0.3994407057762146,0.4141548596866047,1791552593822807001,
0.4488399028778076,-0.23336303234100342,0.40070689117191033,1791552593852748637,
1.4613335132598877,0.7481708526611328,0.37647315162338424,1791552593882684444,
-0.7371529936790466,0.20874327421188354,0.40124335531617933,1791552593912663830,
0.505852460861206,0.2704610228538513,0.4185098966477507,1791552593942852388,
-0.39507776498794556,0.1598939299583435,0.38327655586230736,1791552593973975445,
0.29551076889038086,0.5015660524368286,0.391388057710068,1791552594005169752,
-0.1424044370651245,0.5306735038757324,0.44858124160476764,1791552594032600809,
-0.04107558727264404,-0.5111650824546814,0.4059132972920946,1791552594061352273,
0.1764984130859375,-0.13341671228408813,0.3659842633747779,1791552594092235690,
-0.15765488147735596,0.20358037948608398,0.3727262446863259,1791552594122161385,
0.10434305667877197,-0.3683661222457886,0.3728436309637854,1791552594152148326,
-0.2607421875,-0.07347166538238525,0.3585951698944506,1791552594182439045,
0.19367605447769165,0.4883505702018738,0.32355667057410464,1791552594214295334,
-0.6877289414405823,-0.1497635841369629,0.4206310469293686,1791552594242071866,
-0.7741249203681946,-0.15607690811157227,0.4168428296588979,1791552594271899463,
0.522970974445343,0.16521257162094116,0.38124105708745476,1791552594301888961,
-0.7122998833656311,0.587749183177948,0.3584333246122543,1791552594331815209,
-0.550966739654541,0.2862226963043213,0.3650116938602684,1791552594361763009,
0.05352365970611572,0.1944553256034851,0.35900994318226925,1791552594391752065,
-0.7777237892150879,0.3901100158691406,0.33312692762209706,1791552594422217036,
0.9682090282440186,0.20816969871520996,0.32598876026046686,1791552594454166130,
-0.47160011529922485,-0.16893666982650757,0.44509475137967436,1791552594481638547,
-0.6874039769172668,0.326175332069397,0.4061343343373972,1791552594510516524,
-0.24613600969314575,-0.02441781759262085,0.3388727610440176,1791552594541424974,
-0.2711201310157776,-0.6002021431922913,0.3554238753573255,1791552594571384945,
0.2457309365272522,0.33980345726013184,0.3582039524025479,1791552594601350251,
-0.3194332718849182,0.36335378885269165,0.35187605202379074,1791552594631302308,
0.4547204375267029,-0.6675190925598145,0.3497670380192188,1791552594662186501,
-1.004968285560608,-0.18552815914154053,0.3614075528285049,1791552594694454502,
-0.2509468197822571,0.473105251789093,0.4067303472252311,1791552594721192168,
0.02337646484375,-0.183100163936615,0.3668308852538617,1791552594751132955,
-0.4530361294746399,-0.06920456886291504,0.3881429202890499,1791552594781017704,
0.29304003715515137,0.3233107924461365,0.37170346735975857,1791552594810982023,
0.13902246952056885,0.2224510908126831,0.3409319744698417,1791552594840978268,
-0.2194393277168274,0.17555558681488037,0.33788184304309654,1791552594870962973,
-1.2053216695785522,0.6274573802947998,0.355438418734288,1791552594902019939,
0.21944063901901245,0.6177786588668823,0.3422944731445832,1791552594934330397,
-0.1506710648536682,0.27847129106521606,0.39039826124427873,1791552594960920722,
0.022058606147766113,-0.4357970356941223,0.34375174663912,1791552594990934613,
-0.023982584476470947,0.28252720832824707,0.34533652466621445,1791552595020840746,
-0.20204979181289673,0.547883927822113,0.3124635396445904,1791552595050819813,
0.26307177543640137,-0.0721886157989502,0.3129075074729992,1791552595080886390,
0.05845069885253906,0.26913630962371826,0.3425113794258506,1791552595110776906,
0.8482520580291748,0.3490113615989685,0.32151590096405946,1791552595142775092,
-0.31963860988616943,-0.18779915571212769,0.333613816926871,1791552595172974773,
0.10284727811813354,-0.31261909008026123,0.3745233112606475,1791552595200726978,
0.5475158095359802,0.30842459201812744,0.35002051996665906,1791552595230714778,
-0.5353778004646301,0.21231979131698608,0.33160180614468254,1791552595260747720,
0.30420923233032227,-0.5494111180305481,0.331458362232538,1791552595290738790,
0.3785150647163391,-0.07825177907943726,0.3728373475590892,1791552595320730910,
-0.3278496265411377,-0.1663704514503479,0.37984671725625263,1791552595350739003,
-0.16293758153915405,-0.30261218547821045,0.3459956235141792,1791552595382381155,
0.49724632501602173,0.08070695400238037,0.38284854021344145,1791552595410044246,
-0.18207532167434692,0.4634056091308594,0.3547296658274873,1791552595439884584,
-0.01791834831237793,0.33789730072021484,0.33540345611677636,1791552595469761979,
-0.2650771141052246,-0.797542154788971,0.3134131679383549,1791552595499760580,
-0.2705889344215393,0.15280908346176147,0.33777095989449457,1791552595529715785,
-0.3312256932258606,0.5810716152191162,0.36594656494001737,1791552595559643877,
0.3792186379432678,0.34066057205200195,0.33586821300170533,1791552595590620759,
-0.010804831981658936,0.08438187837600708,0.3423635806186147,1791552595622094745,
0.157015860080719,0.392395555973053,0.4091333286534178,1791552595649594631,
-0.02581232786178589,0.09644770622253418,0.3542354534732721,1791552595678522514,
-0.3744838833808899,-0.32878684997558594,0.3192158774848383,1791552595709386494,
0.5009189248085022,0.7416704893112183,0.3718153044527904,1791552595739428897,
0.3503766655921936,0.3515470623970032,0.38774622863502906,1791552595769303232,
-0.48449307680130005,0.11000669002532959,0.35138163957005547,1791552595799262948,
0.4167986512184143,0.30478477478027344,0.3625928625600587,1791552595830489342,
0.17763948440551758,-0.33348745107650757,0.3728485113512416,1791552595862138652,
-0.3653894066810608,-0.3863798975944519,0.4066320578206002,1791552595889060229,
0.3043981194496155,-0.07532864809036255,0.39554490836997946,1791552595919052357,
0.15450328588485718,0.24530303478240967,0.3975470157203043,1791552595948921599,
-0.13413792848587036,0.170304536819458,0.3730341659154552,1791552595978916120,
-0.2835501432418823,-0.11692553758621216,0.37259517602542574,1791552596008829986,
0.02585756778717041,-0.14048272371292114,0.37003376381030334,1791552596038826722,
0.18943065404891968,0.09562617540359497,0.345354183944946,1791552596070285870,
-0.32812052965164185,0.5079298615455627,0.35575506292677456,1791552596102369946,
0.14830368757247925,0.2859172224998474,0.44950416482084404,1791552596128871772,
0.4965085983276367,0.1374896764755249,0.40350376450542447,1791552596158644499,
0.39281541109085083,0.35468941926956177,0.4072815408165302,1791552596187518392,
0.018394768238067627,0.10114437341690063,0.37576710850353123,1791552596218476321,
0.7813299894332886,0.20068049430847168,0.3805932688070205,1791552596247752521,
-0.2182098627090454,-0.005886435508728027,0.3760614778960771,1791552596278628856,
-0.18894356489181519,0.25273990631103516,0.3614128533636862,1791552596310225894,
0.614109218120575,0.15138739347457886,0.3703797407780177,1791552596340725661,
-0.37055665254592896,-0.6979472041130066,0.42959365513868514,1791552596368193321,
-0.130102276802063,-0.33074504137039185,0.4033154848292515,1791552596398148001,
0.20093601942062378,0.5731217265129089,0.39583637022035345,1791552596428145700,
0.30713707208633423,-0.036974966526031494,0.4204222163098889,1791552596458055469,
-0.588743269443512,0.19942837953567505,0.40997718826193846,1791552596488015891,
0.06776058673858643,0.15805423259735107,0.3802616770958009,1791552596518388798,
-0.2691643238067627,-0.12238222360610962,0.37107643691024106,1791552596551002814,
-0.37841397523880005,0.3641430735588074,0.4560882214489891,1791552596577997752,
0.45055460929870605,0.12185323238372803,0.3605537637854102,1791552596607856838,
-0.3391069769859314,-0.26814138889312744,0.34694096613702385,1791552596637986344,
0.5287259817123413,0.5609655380249023,0.3800560825547283,1791552596667767968,
-0.2489856481552124,0.2759476900100708,0.39932238279497967,1791552596697799637,
-0.22610050439834595,0.2094326615333557,0.388676032578873,1791552596727704713,
0.42034947872161865,0.4034785032272339,0.38178890208293986,1791552596758356913,
-0.02499210834503174,-0.011662483215332031,0.4182903675985749,1791552596789164444,
-0.08255869150161743,0.025848805904388428,0.4461828646075127,1791552596817451809,
0.5464606285095215,0.19074082374572754,0.391646704707942,1791552596847396273,
-0.32796710729599,-0.3035011887550354,0.39534753736845113,1791552596877341346,
0.38777947425842285,0.2193751335144043,0.41765992537286356,1791552596907240541,
0.35069459676742554,0.19911324977874756,0.41017457086402953,1791552596937198139,
0.30247437953948975,-0.2089163064956665,0.41601659899121185,1791552596967134687,
-0.011239469051361084,0.0940624475479126,0.3932674263017232,1791552596999061151,
-0.0583575963973999,-0.03637516498565674,0.4132045924518238,1791552597029870918,
-0.025605976581573486,0.28758013248443604,0.448202007587299,1791552597057021798,
-0.4515564441680908,0.44630950689315796,0.38916216083284527,1791552597087023766,
0.030221998691558838,-0.03852725028991699,0.4102464618949855,1791552597116906584,
0.4528862237930298,0.14544278383255005,0.40282988650433893,1791552597146833337,
0.2006295919418335,0.6510361433029175,0.39291547706967245,1791552597176818991,
0.006718039512634277,-0.20113861560821533,0.43403855384059886,1791552597206758777,
-0.22639477252960205,-0.35598480701446533,0.4141307102682851,1791552597238689798,
0.7633128762245178,0.3647209405899048,0.4244750282172733,1791552597268868713,
-0.37849855422973633,-0.1400662064552307,0.4838438904621312,1791552597305537004,
0.5017399191856384,-0.2013295292854309,0.4549097092133014,1791552597334502905,
-0.3215135335922241,-0.02390599250793457,0.4230336742481643,1791552597366456388,
-0.2580731511116028,0.5533576011657715,0.4115736928977774,1791552597398797215,
0.08495926856994629,0.25635087490081787,0.472826718662743,1791552597426406765,
-0.24205255508422852,-0.5146127343177795,0.42762401477117434,1791552597456274480,
0.13360190391540527,0.11181718111038208,0.4316959346812527,1791552597486232868,
0.19447064399719238,0.8262311220169067,0.4388521603670119,1791552597516191618,
-0.15394985675811768,-0.1535130739212036,0.4562338059054697,1791552597546129487,
-0.2909771800041199,0.05089837312698364,0.47173128340672627,1791552597576058869,
-0.08626449108123779,0.4700208306312561,0.4473629791801194,1791552597606440097,
0.06309562921524048,-0.43708139657974243,0.41580169547626317,1791552597638882058,
-0.09969872236251831,-0.28623127937316895,0.4863100316928627,1791552597665974075,
0.31925296783447266,0.43862611055374146,0.437945321881637,1791552597695929023,
-0.2807427644729614,0.13351953029632568,0.42725070207793525,1791552597725805122,
-0.3599974513053894,-0.02727639675140381,0.42652613077495727,1791552597755778299,
-0.42157453298568726,0.17984336614608765,0.4810848601641737,1791552597785737386,
-0.49559998512268066,0.23628288507461548,0.5024722106703532,1791552597815617151,
0.6703102588653564,0.19644874334335327,0.46548737485915814,1791552597846628669,
0.10065585374832153,-0.165177583694458,0.4949010542436943,1791552597878039525,
0.21229642629623413,0.16814494132995605,0.5464811446064683,1791552597904530767,
0.276752233505249,0.24054783582687378,0.4470290387232437,1791552597935472612,
-0.559653639793396,-0.4125187397003174,0.4863593720891293,1791552597965645486,
-0.3837504982948303,-0.1058892011642456,0.5125033565110741,1791552597995324803,
0.6270015835762024,0.5547623634338379,0.4826802319538808,1791552598025275685,
-0.054338276386260986,0.16039544343948364,0.47806991615767036,1791552598055206041,
-0.5003200769424438,0.13320142030715942,0.44675891558540287,1791552598086757976,
0.4188169240951538,0.33690398931503296,0.46594177091775757,1791552598118139238,
-0.20819830894470215,-0.25116658210754395,0.5874705380132152,1791552598145053093,
-0.19668430089950562,-0.030678272247314453,0.5072922819902504,1791552598175010058,
-0.4460875988006592,0.6188192367553711,0.48994912557103615,1791552598205238786,
0.034055888652801514,-0.09778600931167603,0.5277823675288698,1791552598234889950,
-0.18314123153686523,0.3669666051864624,0.5046587144053829,1791552598264877375,
-0.015997588634490967,0.11548244953155518,0.46484920752574604,1791552598295293194,
0.04460674524307251,-0.27518200874328613,0.4844164780338917,1791552598326327819,
-0.04251360893249512,-0.05679953098297119,0.5078554272397773,1791552598356821767,
-0.06372416019439697,0.24566519260406494,0.5409634413941526,1791552598385745240,
-0.4633415937423706,0.32629406452178955,0.5712577790018758,1791552598413580517,
-0.24646735191345215,-0.031742870807647705,0.4284290713279257,1791552598438068528,
0.4997605085372925,0.24153226613998413,0.5939736060951052,1791552598464737282,
0.0677139163017273,0.37551188468933105,0.5245312131888015,1791552598494433197,
-0.05318731069564819,0.005915224552154541,0.5122097092771378,1791552598524439787,
-0.6309691667556763,-0.8093878030776978,0.5121452398235384,1791552598554331768,
-0.029749155044555664,0.2983435392379761,0.548422894161834,1791552598583530572,
0.21585160493850708,0.4523320198059082,0.5321110416069498,1791552598614381787,
0.1789267659187317,0.057456254959106445,0.4804699258608956,1791552598645499877,
-0.18989354372024536,0.11131781339645386,0.5152314639076048,1791552598674167507,
0.22279518842697144,-0.050922513008117676,0.5343695686685417,1791552598704361080,
0.03519207239151001,-0.4773330092430115,0.5376975164546989,1791552598734010738,
-0.7668238282203674,0.24962949752807617,0.4968096144560536,1791552598764006138,
-0.01204979419708252,0.6605379581451416,0.49380185439356833,1791552598793940655,
0.4387339949607849,-0.03664112091064453,0.5631922546921938,1791552598823876086,
-0.11175858974456787,0.2320203185081482,0.5189210764142616,1791552598854857128,
0.32951003313064575,0.15821754932403564,0.4979258198264257,1791552598886277099,
-0.24804747104644775,-0.7541351914405823,0.5977658290740003,1791552598913814127,
0.2966795563697815,-0.1651531457901001,0.5520579616225871,1791552598944018555,
0.34385037422180176,0.5347627401351929,0.5203667264694223,1791552598965512841,
0.06499475240707397,0.683510959148407,0.5613929720423672,1791552599003745392,
-0.18179267644882202,0.05885028839111328,0.5436170547511728,1791552599033855792,
0.4003465175628662,-0.4788387417793274,0.6217597842403446,1791552599063421055,
-0.33507007360458374,0.08757537603378296,0.58022433575841,1791552599094240228,
-0.2243201732635498,0.1495053768157959,0.519633702504687,1791552599125527099,
-0.005067348480224609,0.028124749660491943,0.5974176870537259,1791552599153776335,
0.02440708875656128,0.5571126937866211,0.5856813453880143,1791552599183264572,
-0.26095473766326904,-0.13047635555267334,0.4666260994562482,1791552599206261135,
0.2758226990699768,-0.4071298837661743,0.61614385112585,1791552599243186301,
-0.05822724103927612,-0.7834005951881409,0.6102450712167855,1791552599273109280,
0.32724714279174805,0.9542601108551025,0.5647235044261789,1791552599303372224,
-0.1606571078300476,0.08433884382247925,0.5444122978003422,1791552599334248110,
-0.17559373378753662,0.23049241304397583,0.5157655798000409,1791552599366475802,
-0.27474790811538696,0.14680516719818115,0.6730308979242121,1791552599392830055,
0.03663259744644165,0.21486330032348633,0.6080671971768687,1791552599423009527,
-0.31999051570892334,-0.12930357456207275,0.5185831885035737,1791552599446151736,
0.00918269157409668,0.21039563417434692,0.6533044047890353,1791552599482691521,
-0.49813568592071533,0.36022859811782837,0.5985362059578877,1791552599513070129,
0.7607079148292542,0.23690837621688843,0.6483270838827505,1791552599542653723,
0.02399510145187378,-0.35337120294570923,0.5924219806666224,1791552599573525575,
-0.32864856719970703,-0.20373958349227905,0.5636812293530207,1791552599604947393,
-0.5814871191978455,0.7385732531547546,0.6207730088307108,1791552599632465328,
-0.04557812213897705,0.04174220561981201,0.6210075615426114,1791552599661796155,
0.263217568397522,0.06091630458831787,0.6103050497360754,1791552599692339074,
0.3640674948692322,0.03521740436553955,0.5743555472627592,1791552599722283023,
-0.3114556074142456,-0.4440574049949646,0.5803623175552474,1791552599752196604,
-0.7511639595031738,0.07640063762664795,0.5838616299100106,1791552599782918739,
0.7557907700538635,0.7328277230262756,0.5884085047664387,1791552599814799707,
-0.07890641689300537,0.06689482927322388,0.6578411295631001,1791552599842792140,
-0.3311201333999634,-0.45768511295318604,0.5985225658426887,1791552599872022479,
0.12213891744613647,-0.178763747215271,0.6261224499127788,1791552599902272602,
-0.8846826553344727,0.459442138671875,0.6851133214738336,1791552599931891564,
0.038839101791381836,0.5032379627227783,0.6541001240642424,1791552599961846543,
0.11043137311935425,0.23050695657730103,0.6449112368353785,1791552599991803198,
0.22165226936340332,-0.10252529382705688,0.6597451631007786,1791552600022338747,
-0.7725589871406555,0.44867652654647827,0.6314836425507516,1791552600054323514,
0.09640723466873169,0.3555551767349243,0.7629689243833149,1791552600080644404,
-0.12981808185577393,-0.252330482006073,0.6583030785954659,1791552600111870266,
0.17069071531295776,-0.2942730188369751,0.6834968241680269,1791552600141550007,
-0.4147447943687439,0.12217158079147339,0.6862091243878827,1791552600171435048,
-0.05233573913574219,0.6651208996772766,0.6679359603350549,1791552600201471190,
0.3862982392311096,0.19855737686157227,0.6486200575406408,1791552600231412058,
-0.4672539234161377,-0.533785343170166,0.6290602001471172,1791552600262821212,
-0.6530685424804688,-0.3645992875099182,0.6422271160101165,1791552600294565897,
0.5654706954956055,1.0368353128433228,0.7965527969507358,1791552600321330481,
0.06634777784347534,0.2127159833908081,0.7322688431469269,1791552600351275756,
-0.728585958480835,0.4848784804344177,0.6527034086367927,1791552600373354722,
-0.44947779178619385,0.535340428352356,0.741251740403686,1791552600411191923,
-0.11089563369750977,0.15465998649597168,0.7006082591281998,1791552600441197775,
0.39971911907196045,-0.366366446018219,0.7103760726935489,1791552600471231218,
-0.10795611143112183,0.3974701166152954,0.6674487339414543,1791552600502369597,
-0.3919031023979187,0.8566594123840332,0.6695495020776787,1791552600533697203,
-0.005954265594482422,0.4127539396286011,0.7887234500923905,1791552600561239082,
-0.37362557649612427,-0.5426170229911804,0.7538435741197999,1791552600590963589,
-0.31698352098464966,0.04408586025238037,0.7257542875913441,1791552600621028044,
-0.021938025951385498,0.7734610438346863,0.7230462756296269,1791552600651121262,
0.29782235622406006,-0.021424055099487305,0.7400798803499136,1791552600680993826,
-0.3114859461784363,-0.4793737530708313,0.7325220282627317,1791552600711150118,
-0.29214537143707275,0.6132035255432129,0.6865423318274397,1791552600742794033,
0.08215075731277466,0.5049930810928345,0.7319567362930977,1791552600772423705,
0.019772112369537354,-0.5166183114051819,0.7702772724337162,1791552600800942756,
0.17860203981399536,0.1870344877243042,0.7618175005692351,1791552600830881419,
-0.1459023356437683,0.7788769006729126,0.7895349618233288,1791552600860931814,
-0.011138379573822021,0.02817821502685547,0.7497813405438626,1791552600891221600,
0.05557793378829956,0.05546557903289795,0.7749566059237195,1791552600920131981,
-0.46233540773391724,0.4035879373550415,0.7283198892350706,1791552600950477698,
-0.061377882957458496,-0.10584837198257446,0.6818416904824649,1791552600982665713,
-0.09587138891220093,-0.14089810848236084,0.8517139862730752,1791552601010022585,
-0.4914095401763916,0.5088150501251221,0.8172414480589945,1791552601039597932,
-0.334649920463562,0.7660155296325684,0.7551209608502706,1791552601070148389,
0.11893492937088013,-0.0955309271812439,0.7739991468240998,1791552601099838983,
-0.31660789251327515,-0.16049975156784058,0.8254619967647718,1791552601129831893,
-0.3379595875740051,0.6585291028022766,0.8468992134281397,1791552601159733703,
0.014290094375610352,0.10773038864135742,0.8554200944497513,1791552601189661457,
0.04801976680755615,0.1906089186668396,0.7757544074521022,1791552601222827767,
-0.27051395177841187,0.3998844623565674,0.9141309706078148,1791552601249640908,
0.24353915452957153,0.08015847206115723,0.8267313490157517,1791552601279839608,
-0.3848412036895752,-0.003806471824645996,0.8534336241406818,1791552601309765669,
0.141618549823761,0.7400183081626892,0.8383527712004712,1791552601339417622,
0.09307914972305298,-0.07220673561096191,0.8467807734339566,1791552601369393276,
-0.4039425849914551,0.42419612407684326,0.8225975556687146,1791552601399335268,
0.3224520683288574,0.6893420219421387,0.7976661976396571,1791552601430809661,
-0.3650311231613159,-0.2998959422111511,0.8513806124391083,1791552601462379568,
0.028332173824310303,0.10008102655410767,1.0017096129396268,1791552601489339375,
0.060830116271972656,0.49214041233062744,0.8830109288202452,1791552601519102937,
-0.001277923583984375,-0.14097517728805542,0.8536781088247817,1791552601549028806,
-0.25904202461242676,0.3273436427116394,0.8436357817580659,1791552601579246884,
0.05384683609008789,0.49163132905960083,0.9013789526433206,1791552601608954751,
-0.2891303300857544,0.5548275113105774,0.869419271008601,1791552601639131663,
-0.14761370420455933,-0.006376683712005615,0.8212648135497819,1791552601670963437,
-0.3243405818939209,-0.06626534461975098,0.8747765683819834,1791552601701490592,
-0.6819628477096558,0.44574737548828125,0.9992464235199678,1791552601728102271,
0.043705105781555176,0.3117518424987793,0.91465102526651,1791552601758656421,
-0.34972184896469116,0.8185751438140869,0.8105242193492724,1791552601782284142,
0.27066051959991455,0.13924622535705566,1.0662757647357806,1791552601818552947,
-0.35267579555511475,0.7357173562049866,0.9912324874926015,1791552601847499244,
0.19050955772399902,-0.26049596071243286,0.92129104543253,1791552601878876224,
-0.7841663360595703,0.1991996169090271,0.897860171914916,1791552601910853001,
0.23291057348251343,0.49873340129852295,1.1097491920926588,1791552601938426356,
0.15215420722961426,0.2525351047515869,1.0477057811332173,1791552601968379043,
0.10553491115570068,0.6513068675994873,1.0212783532378686,1791552601998420927,
-0.1017218828201294,0.6954606175422668,1.0221471074217714,1791552602028250535,
-0.2018660306930542,0.556171715259552,1.0089709074422428,1791552602058396097,
-0.8866468071937561,0.11406385898590088,0.9981868141810609,1791552602088245419,
-0.043851375579833984,0.32122790813446045,0.9842529306104415,1791552602119055291,
-0.3382938504219055,0.5767803192138672,1.0107869699935765,1791552602149560665,
0.21222776174545288,0.10432273149490356,1.0568609362798649,1791552602178002362,
-0.043864548206329346,0.12863248586654663,0.9611492836339223,1791552602207923066,
-0.39178234338760376,0.31833457946777344,0.9146838385274801,1791552602237805287,
0.1406192183494568,0.05429190397262573,0.9787736322816721,1791552602266704495,
-0.32372742891311646,0.49921804666519165,0.9379070079919428,1791552602297703586,
-0.5323058366775513,0.08963644504547119,0.9923851170390414,1791552602327629886,
-0.06469541788101196,-0.417067289352417,1.008445149580034,1791552602358941060,
-0.5505767464637756,0.6311118602752686,0.9667748022178918,1791552602390749520,
0.41544944047927856,0.2692564129829407,1.1541416125987696,1791552602416509064,
-0.035743892192840576,-0.15190422534942627,0.980421394860154,1791552602447450335,
-0.753044843673706,0.0940018892288208,1.0061475964659763,1791552602477415140,
0.26959800720214844,0.17020994424819946,0.9722645498308097,1791552602507301441,
-0.43625158071517944,0.13796460628509521,0.9695644259255329,1791552602537259011,
-0.2687869668006897,-0.4463139772415161,1.0287889905575678,1791552602567270353,
0.10912710428237915,0.5061252117156982,1.0002466872780673,1791552602598677684,
-0.1578015685081482,0.08284449577331543,0.95460404613402,1791552602630455618,
-0.480787992477417,-0.5141904354095459,1.0876151915425953,1791552602657116716,
0.05443757772445679,0.28331345319747925,0.9820738308334855,1791552602687006164,
-0.39506107568740845,0.2679672837257385,0.9695691813074309,1791552602716958256,
0.061752378940582275,-0.2104424238204956,0.970008531921578,1791552602746923688,
-0.4044623374938965,0.09003639221191406,0.9906109994390878,1791552602776852893,
0.24313151836395264,0.5804100036621094,0.971789065821825,1791552602806826543,
-0.16516685485839844,0.28609776496887207,0.9548790375461537,1791552602837539144,
0.16567671298980713,-0.011629641056060791,0.9842188496290066,1791552602868792217,
-0.3656606674194336,0.5495775938034058,1.1060521159485128,1791552602896731280,
0.15606635808944702,0.3109270930290222,1.0497760101306204,1791552602926595228,
-0.020688176155090332,0.01966911554336548,1.0543689271960945,1791552602956498676,
-0.45493704080581665,-0.3435010313987732,1.0358092374422923,1791552602986547931,
0.4256022572517395,0.39593279361724854,1.0151352266862017,1791552603016389869,
0.18797004222869873,0.25269150733947754,1.0022924681928131,1791552603045510245,
-0.01747339963912964,-0.07546931505203247,0.8782470419432549,1791552603079116027,
0.22913342714309692,0.7149807810783386,1.0876016903546464,1791552603106339691,
-0.011680126190185547,0.5819708704948425,0.9752057753291822,1791552603136200367,
-0.6252164244651794,-0.2559511065483093,0.9802076502370236,1791552603166218818,
-0.21461933851242065,-0.394142746925354,1.0213189568372443,1791552603196101949,
-0.2136184573173523,0.15829545259475708,1.0202829622312957,1791552603226094195,
0.29880791902542114,0.7876939177513123,0.9940736814995699,1791552603256179836,
-0.2256011962890625,0.4541739225387573,0.9485601150552707,1791552603286806513,
-0.6306542754173279,-0.24258148670196533,0.9547698483021755,1791552603318711575,
0.09538894891738892,-0.22048574686050415,1.1650947354097192,1791552603345917767,
-0.31341713666915894,0.6178423166275024,1.0887451253080311,1791552603374780265,
0.6938576698303223,0.4494518041610718,0.9988677701358353,1791552603405730281,
-0.2607157826423645,-0.3134395480155945,1.0213713729936276,1791552603435638380,
0.4581533670425415,-0.3101716637611389,0.9937791530405127,1791552603465623853,
-0.6070586442947388,0.5418912768363953,0.9826098002198074,1791552603495562182,
0.051924049854278564,0.38104182481765747,0.9668670853918822,1791552603527020095,
0.17579525709152222,-0.1234704852104187,0.9268794179584551,1791552603559044682,
-0.5288651585578918,-0.18762922286987305,1.1257029987524576,1791552603585393373,
0.038927674293518066,0.27004414796829224,1.0120037805682411,1791552603615356509,
0.04036867618560791,0.3030725121498108,1.0176788546953195,1791552603645304155,
0.6839133501052856,0.32663196325302124,1.0635381308864946,1791552603675335591,
0.11123800277709961,0.15742778778076172,1.2017724257922133,1791552603705215039,
0.4801623225212097,0.3670160174369812,1.3499506179810519,1791552603735245675,
-0.51739901304245,0.9422898888587952,1.3731649390942282,1791552603765499798,
0.36204761266708374,0.42329585552215576,1.322983683444239,1791552603797780380,
-0.30388474464416504,-0.12439769506454468,1.6640353621465298,1791552603825000200,
0.29919910430908203,0.5432375073432922,1.5085180321173202,1791552603854946032,
-0.2480778694152832,-0.033262789249420166,1.2875077111840985,1791552603877775824,
-0.644729733467102,-0.240256667137146,1.484408391621836,1791552603915040555,
-1.4666155576705933,0.004052162170410156,1.2194950045264557,1791552603944893495,
-0.1872665286064148,-0.5148448348045349,1.1037967946610756,1791552603975231108,
-0.21598070859909058,0.08383166790008545,0.9082016547520031,1791552604007045626,
-0.268086314201355,0.4268338680267334,0.956861005094122,1791552604034995809,
-0.16010808944702148,-0.17263263463974,0.8910472386977925,1791552604064653081,
-0.2229299545288086,0.4547696113586426,0.9707379276413239,1791552604094487342,
-0.5005314946174622,0.23855656385421753,1.092950988584531,1791552604124642397,
-0.060400545597076416,0.11513465642929077,1.1093662771747093,1791552604154498192,
-0.13266736268997192,0.11557883024215698,1.0985674530942404,1791552604184331737,
-0.3585142493247986,-0.18918651342391968,1.137649517164883,1791552604213501167,
0.25765562057495117,0.1866704821586609,1.0235393224180307,1791552604246739012,
-0.24250894784927368,0.1629272699356079,1.1985027901348424,1791552604284161348,
-0.5260471701622009,-0.26207560300827026,1.1067952126974803,1791552604314133121,
0.05410414934158325,0.03206068277359009,1.0157288952065668,1791552604344094239,
-0.053251802921295166,-0.024532198905944824,0.983067952745725,1791552604373507007,
0.021096467971801758,-0.286899209022522,0.8432284664907947,1791552604406496902,
0.24823057651519775,0.27972280979156494,1.0378884785096698,1791552604433940818,
0.02560877799987793,-0.06112980842590332,0.9916377989039006,1791552604463498677,
-0.24475526809692383,0.21412402391433716,0.9833658441986722,1791552604494206519,
-0.3895344138145447,-0.15777361392974854,1.0482838892024047,1791552604524062541,
-0.09002971649169922,0.07768934965133667,1.0345513100721788,1791552604553969937,
-0.1703597903251648,-0.056238532066345215,1.0011769550871905,1791552604583692183,
0.21201741695404053,-0.04413938522338867,0.9572170737392484,1791552604615170344,
0.2707313299179077,-0.16335183382034302,0.9767910414984272,1791552604646601728,
-0.1605662703514099,-0.038479745388031006,1.1247817254009953,1791552604673760650,
-0.2802342176437378,-0.14623743295669556,1.0645376623887186,1791552604703483247,
-0.19872599840164185,0.0568242073059082,0.9614318185204672,1791552604725529205,
-0.4749246835708618,-0.13294708728790283,1.095086234482838,1791552604762513475,
-0.16237270832061768,-0.12549704313278198,0.9532701410269813,1791552604793311760,
-0.14622652530670166,0.06273752450942993,0.9664028206802756,1791552604823542815,
-0.522453784942627,0.08249098062515259,0.93076086196413,1791552604854600571,
0.15895408391952515,-0.2731398940086365,1.0097372839636256,1791552604884533804,
-0.1881527304649353,0.08691132068634033,1.0901678709086822,1791552604912997178,
0.3968254327774048,-0.1993163824081421,1.0167309666597124,1791552604943057633,
-0.4651181101799011,-0.14486932754516602,1.0041223405911632,1791552604972936796,
0.14267253875732422,-0.157892107963562,1.0176174483797373,1791552605003142018,
-0.1573358178138733,-0.3183542490005493,0.9985742948077977,1791552605032869822,
-0.26718801259994507,0.2951430082321167,0.946980142050154,1791552605062975189,
0.010432660579681396,0.014889001846313477,0.9230756501055765,1791552605094825764,
0.12767904996871948,-0.32267624139785767,1.072490126064937,1791552605123039667,
-0.01583266258239746,-0.02224099636077881,1.0349781480880629,1791552605152612479,
-0.3119974732398987,0.07394599914550781,1.0236164815368873,1791552605182796487,
-0.31847214698791504,-0.37802594900131226,1.0476759035961403,1791552605212497087,
0.45394670963287354,-0.235293447971344,0.996954564214144,1791552605242834919,
-0.4261513948440552,0.2535397410392761,0.9841835684536857,1791552605272415571,
0.504487156867981,-0.2162313461303711,0.986604467938893,1791552605302561676,
-0.0412214994430542,-0.3586909770965576,0.9503004988836624,1791552605334579661,
0.37162870168685913,0.021166443824768066,1.0998085597608123,1791552605362307584,
-0.043197035789489746,0.019895434379577637,1.0440526534878514,1791552605392217905,
-0.1463271975517273,-0.14992141723632812,1.0581202733644233,1791552605422161402,
-0.09483695030212402,-0.24111729860305786,1.0341616322054272,1791552605452071557,
0.3842007517814636,-0.07676160335540771,1.0139501728193745,1791552605482119232,
-0.012417316436767578,-0.10875916481018066,0.9815655893405376,1791552605512229138,
0.11644589900970459,-0.2583637833595276,0.9291367143175109,1791552605542619207,
-0.026126384735107422,0.08775967359542847,0.8779352171203819,1791552605575241219,
0.10369080305099487,0.003094196319580078,1.1200385537801472,1791552605601870101,
-0.024971604347229004,-0.11925363540649414,1.0254656161661042,1791552605631774245,
-0.02133709192276001,-0.2000713348388672,1.0079762646835717,1791552605661726883,
-0.038268446922302246,-0.14994597434997559,1.012210693608913,1791552605691658426,
-0.1745593547821045,-0.08613604307174683,1.0268503553528125,1791552605721629732,
-0.03362596035003662,-0.029876887798309326,1.0295560878216934,1791552605751610809,
-0.23049414157867432,-0.07636767625808716,1.0132929195347984,1791552605782654999,
0.6131795644760132,-0.10432547330856323,0.983342076194045,1791552605814864406,
-0.21704083681106567,-0.16755032539367676,1.139168958823957,1791552605841592516,
0.5779723525047302,0.017309188842773438,1.0235407994981596,1791552605870525252,
0.06111699342727661,-0.04760938882827759,0.9426565251507081,1791552605901444902,
-0.05597323179244995,-0.12322103977203369,0.9654512863823173,1791552605931492609,
-0.07444584369659424,-0.17995423078536987,0.9714027353083526,1791552605961343260,
0.091763436794281,0.4325878620147705,1.0233207128583692,1791552605991403833,
-0.022968411445617676,0.26353269815444946,1.0589811130192959,1791552606023382246,
-0.3881910443305969,-0.32598406076431274,1.141961606642541,1791552606053682088,
0.2123371958732605,-0.10206443071365356,1.2649923854964225,1791552606081344511,
0.1426413655281067,0.5162162184715271,1.2705184263637526,1791552606111259076,
0.5232036113739014,0.15162569284439087,1.39779485702034,1791552606141283214,
-0.28478217124938965,0.01852792501449585,1.567438793015099,1791552606171222836,
-0.012589514255523682,0.2289193868637085,1.6147683490667386,1791552606201274683,
-0.4612249732017517,-0.13722407817840576,1.5532880635627426,1791552606231242810,
-0.08739131689071655,-0.04194462299346924,1.3165193381852176,1791552606262718337,
-0.9607604146003723,-0.5807418823242188,1.1570397947243143,1791552606292650366,
0.18261122703552246,-0.5445755124092102,1.0194535147319537,1791552606321187400,
-0.2146538496017456,0.1736522912979126,0.9092819318577164,1791552606351123308,
0.5661286115646362,0.28109341859817505,0.9119917827175597,1791552606380456792,
0.7230971455574036,0.31026118993759155,1.0601869026863067,1791552606410450999,
0.4933830499649048,0.9347015619277954,1.32986652759198,1791552606440340252,
0.29192405939102173,0.10521954298019409,1.4157712461156204,1791552606470517074,
-0.3360291123390198,-0.6684797406196594,1.2491932139636543,1791552606502592785,
-0.19759726524353027,0.007810235023498535,1.4210403379144099,1791552606530202550,
-0.4864862561225891,-0.00309830904006958,1.3004052833968693,1791552606560278386,
-0.4811832904815674,-0.2828196883201599,1.2833393765583958,1791552606590110407,
-1.14228093624115,-0.27537184953689575,1.2132382839280818,1791552606619979657,
-0.3476138710975647,0.2797827124595642,1.0567610524139281,1791552606648973809,
-0.25635552406311035,-0.5375171899795532,0.8777294006146424,1791552606679998082,
0.4659498929977417,-0.2290671467781067,0.8237871863472526,1791552606711066955,
0.29731738567352295,0.6240032911300659,0.8683314512369379,1791552606742591004,
0.6014190316200256,0.5595659613609314,1.0652399203360745,1791552606769771836,
-0.38486331701278687,-0.46330779790878296,1.001863991216893,1791552606799670453,
-0.20985424518585205,-0.10902082920074463,1.0145656489283876,1791552606829700939,
-0.22418153285980225,0.43875032663345337,1.028073516280739,1791552606859594370,
0.2020500898361206,0.1523037552833557,1.0453979597412324,1791552606888530977,
0.04976499080657959,-0.3130829334259033,0.9323861943670575,1791552606919582075,
-0.05766427516937256,0.19469600915908813,0.9316958802939269,1791552606951058952,
-0.8126370906829834,0.23630023002624512,0.9407179207836465,1791552606983052644,
0.281013548374176,0.37155085802078247,1.1339932581006182,1791552607009469917,
-0.6989034414291382,0.054497480392456055,0.9922792241879662,1791552607039357038,
1.0280163288116455,-0.2560305595397949,0.9999046271154505,1791552607069297280,
-0.30775976181030273,-0.25231051445007324,1.0194432716098902,1791552607099184318,
0.3807859420776367,0.6148161888122559,0.9740104151792829,1791552607129134584,
-0.40687358379364014,0.9649414420127869,0.9819792774010939,1791552607159692226,
-0.39322203397750854,-0.005353987216949463,1.00472030062847,1791552607190896610,
-0.27637213468551636,-0.4162387251853943,1.0003369519176593,1791552607222254132,
-0.2998090386390686,-0.11063164472579956,1.1207601357502894,1791552607249017012,
0.6360990405082703,0.1873455047607422,0.9816448764712968,1791552607279212081,
-0.04340726137161255,0.1022789478302002,1.032265646302394,1791552607308838549,
0.4059150815010071,0.2479749321937561,1.004058970049044,1791552607338814704,
0.5179489850997925,0.3460695147514343,0.9626128280793091,1791552607369054256,
0.1568494439125061,0.5463863015174866,0.9850722388205154,1791552607398891384,
0.29854655265808105,0.02580404281616211,0.9295146864522805,1791552607431158453,
-0.2880110740661621,0.1500747799873352,1.0075055847094274,1791552607460847802,
-0.35901570320129395,0.4323264956474304,1.1034700137380475,1791552607487540629,
-0.4502618908882141,0.415896475315094,0.9651601510412062,1791552607518464432,
0.21636474132537842,0.18988311290740967,0.9975693083587553,1791552607548326060,
-0.42198407649993896,-0.3208431601524353,0.9823422275467169,1791552607578393636,
0.5660741329193115,0.16981971263885498,1.0028664662531044,1791552607608319839,
0.36163026094436646,0.3159139156341553,0.9533041660719119,1791552607639289750,
0.07407784461975098,-0.0541117787361145,0.9245268258921909,1791552607671119657,
0.46584975719451904,0.5550090074539185,1.1056159320997168,1791552607708087519,
-0.5360367894172668,0.16621941328048706,0.986439283221983,1791552607738211098,
-0.08574748039245605,0.4912450909614563,0.9935321125450056,1791552607768071833,
-0.480527400970459,0.6305868029594421,0.9687542605246731,1791552607798914265,
0.4347503185272217,0.2919900417327881,0.9652566861794619,1791552607831214124,
-0.41513365507125854,0.49347543716430664,1.1902389573274266,1791552607857557587,
-0.018528640270233154,0.22872436046600342,0.9818958672519263,1791552607887811759,
0.5589527487754822,0.015571653842926025,1.0122037392344894,1791552607917761858,
-1.038625717163086,0.3194039463996887,0.9979354893422538,1791552607947672684,
0.15175074338912964,-0.019457340240478516,0.9794287230455079,1791552607977647855,
-0.6119093298912048,0.38835251331329346,0.9631015538523774,1791552608007600069,
-0.06621485948562622,0.09044426679611206,0.8840608909694363,1791552608040057613,
-0.32079923152923584,0.17344540357589722,0.9661680265400563,1791552608070471950,
-0.11947447061538696,0.3453131914138794,1.10765770944143,1791552608098128536,
-0.5095734596252441,-0.028263509273529053,1.0670699082347084,1791552608127346301,
0.4558427929878235,-0.1959170699119568,1.0246947465819587,1791552608157313743,
1.6459699869155884,0.4145110845565796,1.0188343718951982,1791552608187260454,
-0.35546278953552246,0.5054380893707275,0.970250281980371,1791552608217454667,
-0.2053171992301941,0.35682350397109985,0.9521548358466739,1791552608247563655,
-0.6620797514915466,0.25536638498306274,0.9319638248354055,1791552608278963557,
0.013248085975646973,0.35184937715530396,0.9686663213566674,1791552608309337114,
-0.21187186241149902,-0.19482135772705078,1.0642404813009934,1791552608337082857,
1.5218329429626465,0.5171459317207336,1.0051238527982183,1791552608367015349,
-0.06121641397476196,0.27623283863067627,1.011578542538759,1791552608396831655,
0.8029014468193054,0.2399611473083496,0.9463576824890148,1791552608426873174,
-0.29359984397888184,0.5278163552284241,0.9453604832064099,1791552608456778191,
-0.1494060754776001,0.5887492895126343,0.8950909959812139,1791552608489281732,
0.171556293964386,0.1397297978401184,0.9602746880459234,1791552608519478603,
0.006402492523193359,0.2623022794723511,1.0283731415241626,1791552608546723175,
-0.1706472635269165,0.23495149612426758,0.9355018622184115,1791552608576576483,
-0.5220374464988708,-0.07618790864944458,0.9254023405492642,1791552608606551142,
0.0406721830368042,0.5779189467430115,0.9581740944131114,1791552608636430580,
-0.007599830627441406,0.500917375087738,0.9788104908879713,1791552608666422189,
0.06059485673904419,0.4146183729171753,0.9031480899910711,1791552608696358667,
0.9748470187187195,0.0982542634010315,0.8105746896661414,1791552608727598334,
-0.3813108801841736,0.08823955059051514,0.8408939109660524,1791552608759066575,
-0.2628653049468994,0.5310723781585693,0.9809380724402911,1791552608786333508,
0.1345738172531128,0.266354501247406,0.8849221530220572,1791552608816696857,
-0.274203896522522,0.4777598977088928,0.9108258179123047,1791552608846095775,
0.6214985847473145,0.4456424117088318,0.8924132073498984,1791552608875996479,
0.03527176380157471,-0.32221555709838867,0.8397460128003154,1791552608906006857,
-0.4136272072792053,-0.4513181447982788,0.8480894553579336,1791552608935948869,
0.16010594367980957,1.2024731636047363,0.8370304131678322,1791552608967306687,
0.41033071279525757,0.5274438858032227,0.819297453854259,1791552608998914598,
-0.37973636388778687,-0.06661981344223022,0.9195944076993317,1791552609025934162,
0.3568878769874573,0.5743463039398193,0.8458247026632375,1791552609055712826,
-0.3106399178504944,0.1355699896812439,0.839226667653235,1791552609085988546,
0.10926085710525513,-0.09205830097198486,0.8477573558077283,1791552609115589191,
-0.21160483360290527,0.9040589332580566,0.8187554264665383,1791552609146020259,
0.34297680854797363,0.304882287979126,0.8513306698112123,1791552609174531091,
-0.07675176858901978,0.6380103826522827,0.7527678136027937,1791552609206753513,
-0.06472653150558472,0.006023764610290527,0.7715413377733297,1791552609238435675,
-0.4181702136993408,-0.1254960298538208,0.9068693802461486,1791552609265359607,
0.34806519746780396,0.5315378904342651,0.8317469209205836,1791552609294802984,
-0.06612884998321533,0.5234384536743164,0.8093508896307301,1791552609325237944,
0.11610215902328491,0.20953792333602905,0.7961352588561696,1791552609355188127,
-0.22286802530288696,-0.03558623790740967,0.7706358320823684,1791552609385128306,
-0.6301611661911011,-0.0173376202583313,0.768021865923777,1791552609415382756,
0.5613073706626892,0.39962267875671387,0.7490381327903943,1791552609447071384,
0.08742821216583252,0.5244598388671875,0.7689239482037661,1791552609477889166,
0.027004897594451904,0.4859435558319092,0.8786538383941781,1791552609505170340,
0.2042427659034729,0.12181419134140015,0.8143678029690322,1791552609534870554,
0.16673320531845093,0.03829997777938843,0.7908020637152501,1791552609564840375,
-0.1128268837928772,0.3819500207901001,0.7542432236248691,1791552609594791215,
0.2050914764404297,0.3477834463119507,0.7279422186637342,1791552609624717005,
0.029873192310333252,0.05467623472213745,0.7321956052191669,1791552609654765035,
-0.25003916025161743,0.008909642696380615,0.6938505373907556,1791552609687264604,
-0.10629922151565552,1.041796088218689,0.812826364896857,1791552609714680183,
0.2478596568107605,0.04345589876174927,0.7293546677392894,1791552609744604717,
-0.09116005897521973,-0.3535292148590088,0.7504524246173451,1791552609773511608,
0.32696783542633057,0.43578386306762695,0.7136486637312757,1791552609804666071,
0.12209469079971313,0.8549365401268005,0.7703028286302246,1791552609834362300,
0.09669053554534912,-0.15405148267745972,0.7321949523516993,1791552609864335881,
0.3492463231086731,-0.04794204235076904,0.6987674755200871,1791552609894909924,
-0.3973376154899597,0.35085660219192505,0.6606666505246837,1791552609927487143,
-0.21060562133789062,0.4245094060897827,0.816252974804893,1791552609954172780,
-0.038544297218322754,0.20908135175704956,0.7579725085509171,1791552609983122218,
-0.2671491503715515,0.16155487298965454,0.7176265006820984,1791552610013078735,
-0.22773748636245728,0.5036449432373047,0.6846810215126541,1791552610044251424,
0.15655505657196045,0.467861533164978,0.7482620925591658,1791552610073122709,
0.7600886225700378,0.2605953812599182,0.7001312244520531,1791552610103944166,
-0.14040148258209229,0.08815586566925049,0.6590768600193458,1791552610134797718,
0.1542535424232483,-0.15718811750411987,0.6094348908541493,1791552610167038443,
-0.718547523021698,0.13781875371932983,0.7445099783658785,1791552610193731489,
0.7095364332199097,0.6162590980529785,0.6671085831977704,1791552610223614659,
0.1630229949951172,-0.047440946102142334,0.6663590807517943,1791552610253565255,
-0.4173603057861328,0.1858842372894287,0.6572295762558437,1791552610283561125,
0.1824074387550354,0.6224527359008789,0.6261226585873195,1791552610313433909,
-0.40697115659713745,-0.2843526005744934,0.638230679551993,1791552610343434774,
0.7042739987373352,0.035301387310028076,0.6354146019311881,1791552610375248110,
0.4560457468032837,0.45209938287734985,0.6585952824187532,1791552610406040816,
-0.2737632989883423,0.5946303009986877,0.7110198772772776,1791552610433293492,
-0.28584790229797363,0.27733343839645386,0.6335175697381052,1791552610463233546,
0.4224797487258911,-0.018416225910186768,0.6549796415638133,1791552610492127443,
-0.06150054931640625,-0.06996756792068481,0.6049163492104592,1791552610523123681,
-0.04942399263381958,0.18782520294189453,0.6116748139386253,1791552610553042782,
0.03934842348098755,-0.04527425765991211,0.6307375853104411,1791552610583038332,
0.06256794929504395,0.6817953586578369,0.6177264655606522,1791552610615370612,
0.5794984698295593,0.21013611555099487,0.6340811451995192,1791552610645000746,
0.14266705513000488,0.23627454042434692,0.6330169917337396,1791552610682838778,
-0.25691157579421997,0.09856414794921875,0.6196026292284319,1791552610712839058,
0.32910507917404175,-0.3694940209388733,0.6050812408917222,1791552610742843600,
-0.4649769067764282,0.0003330707550048828,0.5695513162265324,1791552610775114102,
0.07174801826477051,0.4489324688911438,0.655023718502252,1791552610802664649,
0.3973749279975891,0.5917240977287292,0.5986767344983315,1791552610831523607,
0.10620981454849243,-0.04000669717788696,0.6153444580702446,1791552610861503271,
0.051499009132385254,0.4502943158149719,0.6017612127790474,1791552610892460748,
-0.11602532863616943,-0.029843926429748535,0.5958505948456914,1791552610922376753,
-0.1446022391319275,-0.09113419055938721,0.5798508037555999,1791552610952352083,
-0.19560903310775757,0.26330292224884033,0.5729249483944168,1791552610982993612,
0.19131922721862793,0.29688870906829834,0.5360405641081899,1791552611015290644,
0.2088381052017212,0.18048202991485596,0.6495239029253782,1791552611041217045,
0.2923099398612976,0.17569077014923096,0.5559403243007687,1791552611072129408,
-0.18883776664733887,0.04152679443359375,0.542765271494167,1791552611102080064,
0.20166927576065063,0.304686963558197,0.5288224661719545,1791552611132024733,
0.3482014536857605,0.6648038029670715,0.5711387354013435,1791552611161948265,
-0.2842584252357483,0.03117513656616211,0.5539448841023034,1791552611191925582,
-0.7323088049888611,-0.10281491279602051,0.5297026917735616,1791552611222867347,
0.6365869045257568,0.18551719188690186,0.5233979330845753,1791552611254878678,
0.11912167072296143,0.14601242542266846,0.6297625389757948,1791552611281882993,
-0.39016979932785034,-0.25906723737716675,0.5421933848787249,1791552611311811586,
0.6867711544036865,0.3711790442466736,0.5409027971273089,1791552611341781939,
-0.48150187730789185,0.2972886562347412,0.5202887088182746,1791552611371723242,
1.116689920425415,0.27895820140838623,0.5118066763078111,1791552611401721415,
-0.1788170337677002,-0.2108757495880127,0.5324393942379256,1791552611431747636,
-0.34080469608306885,0.01658046245574951,0.5105333609674293,1791552611463260033,
0.2628247141838074,0.752423107624054,0.5362546038691289,1791552611494368743,
-0.014951229095458984,0.13242018222808838,0.6206892216510834,1791552611521614097,
-0.1312638521194458,-0.22847378253936768,0.538976738742954,1791552611551639522,
0.21769148111343384,0.2765471935272217,0.5332219627797458,1791552611581557485,
0.1195116639137268,0.10009664297103882,0.5428246257504425,1791552611611612080,
-0.17823892831802368,0.011179029941558838,0.5553906035884659,1791552611640540012,
-0.08503925800323486,0.5628986358642578,0.4935521304171884,1791552611671608999,
0.14591532945632935,0.1559293270111084,0.48195070911565363,1791552611703035305,
0.01757347583770752,0.1426817774772644,0.5162044494566016,1791552611733006510,
0.46993958950042725,0.05216485261917114,0.522618016986863,1791552611760511258,
-0.6604048013687134,-0.463137686252594,0.5035829131196325,1791552611790510102,
0.3233867883682251,-0.19512921571731567,0.5142186681835991,1791552611821397683,
0.10840415954589844,0.23616737127304077,0.5284964972144504,1791552611851474329,
-0.17737382650375366,0.5360094904899597,0.49034817548816195,1791552611881455020,
-0.3727525472640991,0.6070115566253662,0.5029238951394982,1791552611910683943,
0.23574048280715942,0.23098623752593994,0.47634647369242394,1791552611943158294,
-0.10616284608840942,-0.1102449893951416,0.5448040462252378,1791552611970697551,
